,tBodyAccX_mean,tBodyAccX_std,tBodyAccY_mean,tBodyAccY_std,tBodyAccZ_mean,tBodyAccZ_std
0,0.26065840691318903,0.39866863180631457,-0.0773170836518425,0.3519187174271319,0.1624068622344416,0.6791789371938416
1,0.6107609378782857,0.22289334520269513,-0.27659480755032556,0.2229931175291981,0.09667400036018313,0.659847720485123
2,0.8126920821263671,0.2901778398141152,-0.5492245530380582,0.5574104363576396,0.1714079556517281,0.7380220773273843
3,0.9686515966154203,0.17433061920094442,-1.1019087156985163,0.6082787284821322,0.8713483327193178,0.8859361666511404
4,1.128409468261155,0.1971552219290441,-1.673438731282517,0.36025033574941784,1.636747105791366,0.45860644890995944
5,1.3168033079921833,0.36224448996764447,-1.6830928667808611,0.38352040720612274,1.3689111148239301,0.8174490667940533
6,1.6804210766088543,0.4391426413730667,-1.4674477715438663,0.529828298088229,0.82848688078723,0.9182505653537252
7,2.012039506500109,0.43838848702319616,-1.2079658514661782,0.35192461923140533,0.12724274794305807,0.33590267734202406
8,1.8658759520718113,0.6278704948083229,-1.1789192568253057,0.30592262560019706,0.14837522126953792,0.3086685862928433
9,1.003434467070588,1.2549600265296115,-0.9036038870816122,0.5515849035588622,0.3172188393202175,0.3590864702269663
10,-0.4101509806211529,1.3837601478428878,-0.3116430091751948,0.758248840485482,-0.11400943158546363,0.9580376894643887
11,-1.6014668436422486,0.8533318452787441,0.061456525696264176,0.4143341674993096,-0.798020791055953,1.086498670636754
12,-1.9079697898655217,0.46809704736266566,-0.02069199991855219,0.43203083887092497,-1.1886744577960282,0.6313336656554221
13,-1.361426403281618,0.8896662288815184,-0.628001938010101,0.5378535602586243,-0.43174020783936967,1.4003706780888123
14,-0.6937204637226494,0.653314602474322,-0.8751302406371837,0.43076209128751763,-0.18646997678658986,1.2394747465190632
15,-0.4759555848012838,0.44626118664535774,-1.0117104415725788,0.35595373639988737,-0.2175304739844052,1.2530491768018708
16,-0.4463520073784365,0.3968774030800201,-0.6755305695523176,0.39283230103483824,-1.097492957892803,0.6014292189054705
17,-0.167353574853192,0.6253118291187935,-0.6573081966749826,0.351557619339583,-0.73685210494505,0.854287807029641
18,-0.07125320992101612,0.6080742241682668,-0.5301424589677578,0.35941291525118935,-0.6223402204030418,0.9494274757427541
19,-0.0008316951053752779,0.6459746085280991,-0.6089073623947698,0.40124872500485737,0.26611751255867266,0.8316075296109
20,-0.17351868612301743,0.5445668518694303,-0.3904061324663134,0.4146043803027389,0.1849384565024542,0.8098601657847291
21,-0.10440547288047416,0.46011252807384084,-0.12234830848673847,0.47685143982291367,0.011593935593752732,0.9530980256740536
22,-0.40506690964306896,0.575105910124348,0.16352817239274534,0.28380209627678427,-0.02482633477301893,0.8723745164150637
23,-0.2203970583736558,0.6993493769733825,0.17687103580140381,0.26589309195021116,-0.276174168937066,1.0572963873463253
24,-0.5011284259262887,0.9022655052348111,0.10402152706526419,0.2926631625598644,-0.40068801059321935,1.0734160991439576
25,-0.23517827759958865,0.9646796499740007,-0.16163830246008484,0.4694212551461954,-0.8734271146240619,0.8173139207319362
26,-0.14305573212412423,1.0405192597533426,0.46825717265524197,1.2078825126709727,-0.6208484165591699,0.7771856625808823
27,0.0038839134203322227,0.9455954131179864,0.9074256015535823,1.2261351097745259,-0.28385792538214555,0.6587572977651504
28,0.3229855517871129,0.9044570131877372,1.243590828297084,0.8414236554434261,-0.19765022008048688,0.15841649085776038
29,0.5736818252035131,1.4083210582946015,1.0459563737040816,0.8636503750521592,0.3142470696370218,1.1024360052997082
30,1.2995064830326575,1.0456124231723978,0.4415186767953514,1.0158373402508334,0.373600847309231,1.1049228264461082
31,1.4463816697018361,1.041490328814038,-0.10376644232432802,1.2384862892022597,0.3375506871508448,1.1620371644886047
32,1.1291278191884284,0.44526746337669193,-0.6357813971943828,0.38782533683436404,-0.033693636235939475,0.48673136590999344
33,0.8588046099964697,0.6201825221074934,-0.7905368042307719,0.40321779742321906,0.18960432872660177,0.5513267836075956
34,0.16713054103213212,0.8436609956683239,-0.6407357963121274,0.37637368859562115,0.6181756343194499,0.32426576178523425
35,-0.4128080599565628,0.9109229081772945,-0.6903103040472391,0.39345120271656625,0.7562882172005688,0.2738888422546313
36,-0.8990163157495193,0.27646008601864475,-0.6018382180163996,0.4160008047932862,0.5583532541986964,0.48862551221623457
37,-0.946955956156645,0.27810584156407364,-0.6925671040689794,0.3979979990732125,0.10068810360961683,0.6083376684278101
38,-0.9593534484451326,0.3070923404228741,-1.019321364970219,0.5228523272357043,-0.36475282217322796,0.5353814296950914
39,-0.737466886635287,0.47950519467065217,-1.1713784380296846,0.38274869974037573,-0.5626659405713536,0.4092306401545246
40,-0.30009229659437325,0.6985437339680928,-1.0706183850316984,0.478323470797214,-0.4514531543934213,0.4591043337961063
41,0.44743897115711045,0.5842570497965291,-0.6160442617487778,0.5811847728362188,-0.23489460929575826,0.38426580084627315
42,0.28850721412149744,0.7961231249000317,-0.23635822048331606,0.5221957528826825,-0.1290593296631817,0.3270836263448831
43,-0.4795382839610764,1.2685914737258923,-0.27415578205710533,0.5708491701638081,-0.22781910147345708,0.41699715308250845
44,-1.1961445009354414,0.6833771406051292,-0.1536004784335458,0.6816617464705553,-0.11725479645543237,0.5350342071622737
45,-0.8452704289947558,1.0535818508032815,0.20337761214937716,0.9404838218494671,-0.03161273691200927,0.6450870950357194
46,-0.10320592749951689,1.6361477670250653,0.26056540861317135,1.34922431393607,0.5925933349222167,1.1260436481500407
47,-0.6831556580662806,2.1786587290053,-0.8372867331176799,2.0305905720497646,0.3035367023880498,1.2538155791191434
48,-0.6277639529406503,2.2945066707709336,-2.0277481554419405,1.5046426091589018,0.42176490048854653,1.2005758519141934
49,0.07285457603183687,2.644058327250126,-1.4033939886658497,2.1752003354517835,-0.5718203638577174,1.143374055874949
50,2.1312571848522794,2.0582291127297085,1.0085829908225004,2.8854896024966017,-1.0086490870711613,1.3586072918704484
51,0.46426864157002246,4.102314145871862,2.4446071312961655,2.3669876537528607,-1.0310051251512167,1.3694596717618874
52,-0.8684055903068706,4.136949067578605,1.275855865240144,3.305465662992003,-0.8955337079708356,1.163926338612784
53,-1.0266894324473916,3.9771819244033426,0.20405372450541648,2.6689335115808466,0.015752120047839154,1.155307648060764
54,0.44241944382883064,2.814487433759992,-0.5735686121902771,1.6292686842336799,0.23263426348635216,1.206025726892812
55,1.095762415961421,1.7423382480018192,0.6288610195072508,0.9172103725409116,0.7674678871383368,0.6396550708457078
56,-0.08413859539408047,0.8116713899438814,0.0661497429574943,1.1306037614340207,0.18463665251731334,1.5847256565178263
57,-0.1486019696801483,0.8642619886191467,-0.18370763086794906,1.3903628244234167,-0.18609379302002024,1.4735947421173798
58,-0.7429518027942881,0.7654835276943751,-0.9694834633175,0.8073400558957553,-0.38627010964913316,1.5422949014702798
59,-1.0646268853761862,1.5850908860793542,-1.014464098810166,0.6003148270187668,0.8970647647063765,1.6457082947383717
60,-0.5604746611473831,1.9932602974471334,-0.5196100688937088,0.6343747089039006,0.8955510527485603,1.7307648096448585
61,0.1721158714167517,1.9556641127041972,0.12608061620438385,0.942999013171596,0.34041130411661935,2.1954989163592877
62,1.0045800249283725,0.6204649703929038,1.1043934633993888,0.8720480526788328,-0.773399358996962,0.9932276364958537
63,0.730098407821145,0.9875935666359433,1.2013529606621722,0.8367313509732345,-0.6475098988543981,0.94369759338557
64,0.3305795316611714,1.2716900374701878,0.7495499359095026,1.0472190804348476,-0.08542080014377158,0.37114483485203076
65,0.39572200096993276,1.488793224983762,-0.07861080387662778,0.5593560534465386,0.08999647742000576,0.2977413977763306
66,0.06578096976443573,1.2345250660076146,-0.36128526282591866,0.263134101217662,0.04295726324920852,0.2511756267687425
67,0.049064525019685314,1.0742352330172409,-0.5933565582140948,0.4255830001023572,0.023260205666830135,0.229268434357168
68,-0.29030465963420055,0.3680184515843189,-0.6940836339510696,0.41377021333028924,-0.06586061089326851,0.21461578791518346
69,0.029356729704793274,0.4515602836822076,-0.8285619499665463,0.29284683450592613,-0.08584372610670982,0.19421710718785193
70,0.18359316639215548,0.31679598418867444,-0.1746772076601011,0.8311662293601597,0.039591092992885234,0.1548621602109837
71,0.026354406448560734,0.39972092880394205,0.5604625313019349,0.9888073504546849,0.07946701491420276,0.1509771490165333
72,-0.0035712059004260814,0.3775627088447315,1.232377054783032,0.3906328342765272,-0.02033861219368332,0.20193885577728976
73,0.3507494421436919,0.6460598797358934,1.260447562735693,0.34372016812338113,-0.18611760833544974,0.2050424957323483
74,0.5853173987413657,0.5231799440660768,0.6966955715880023,0.7475153890907494,-0.1880001691597965,0.2765566951428931
75,0.23412540374731705,0.8098729776493573,-0.10876088060858087,0.964921750359786,0.012491443125190016,0.4354750264806109
76,-0.07851404040328966,0.5673428428941099,-0.31583837838576695,0.7262691832437912,0.07453776836030022,0.38677152906188167
77,-0.23984100839106173,0.3905296889513107,-0.26285449090624335,0.6896498640687305,0.13101869403965966,0.3495243217311625
78,-0.07050068609048231,0.22021465669772916,0.09534921532083285,0.25292715461997906,-0.011004733268938648,0.2056854866458794
79,-0.14240276390862702,0.09390947093019607,0.03864926337330119,0.18411318942836968,0.01770555670417209,0.1867316216810961
80,-0.11794617646205925,0.0840641248738287,0.09873306852725469,0.1372498112232249,-0.023299391078540014,0.07313132766947202
81,-0.05462010493432399,0.08337667122097563,0.11599924239981835,0.08334212456332245,-0.026674386215768786,0.06582689983579358
82,0.003328065296417909,0.11240570404206869,0.06273976663566429,0.05980466333633655,-0.013913958580411173,0.0454405371894422
83,0.04204185691439787,0.07200057980509925,0.028650799191873234,0.02439960793255946,-0.02398459835879331,0.03792187449569478
84,0.040041559499383615,0.07180229898635282,0.06073507264013845,0.04658392237139635,-0.008028551689723901,0.043113410907703424
85,0.012049755963189761,0.04057898234453889,0.057331319245830216,0.05217453807288652,4.018378584303266e-05,0.029305377729165544
86,0.04340597469303599,0.04388505955771836,0.057341545359330524,0.05278999468103611,0.0013370773847424652,0.028375199815856348
87,0.03400888715243212,0.05310817786986805,0.03865685525488224,0.03472188631940724,-0.007998126620533834,0.02247065329137597
88,0.034059025931597105,0.055236167622653605,0.049298439688632185,0.028821155705474086,-3.0301122556233272e-05,0.01800152277980993
89,0.04204701935044981,0.06291785937885826,0.04400002548094069,0.032136039105175054,0.011343410892690567,0.028085031485627167
90,0.059321943788479076,0.04152226716199188,0.009974835769750435,0.04515957367588495,-0.006637223111685048,0.04128497323294557
91,0.07869049633118427,0.047587298973472324,0.007347111937812519,0.07450488131499895,0.023998875941995384,0.0981474392043456
92,-0.019996202499263493,0.16467143251689734,0.15598050634920932,0.2402568180531021,0.08470396793782126,0.23754531478905033
93,0.15201215571073667,0.35986681287563216,0.16531957400141067,0.2446211537571874,-0.09143412361355313,0.5373953871208533
94,-0.09194077309576325,0.6182200434820081,0.14667438178420988,0.2539653436719762,0.0346197288349123,0.6147349202567413
95,-0.015372238049669052,0.6512027993402336,-0.11601038377839674,0.19576890621622112,-0.17734975662255284,0.6044907699710798
96,-0.10138306215869693,0.5626852689739229,-0.0626688724881248,0.2241655577325664,0.13931492651007424,0.4463184891769743
97,0.1819082590874532,0.26639106521955197,-0.017953921484300434,0.2372545553591083,-0.09126813756581807,0.3720662922889417
98,0.11330421245192036,0.21105753866022456,0.1333747755277088,0.04837882272683026,0.07601054932886388,0.2687780477122171
99,-0.01667986754474894,0.18076867162119983,0.062027500907444584,0.09956030920547662,-0.05929529769570789,0.13783998764931527
100,-0.12732943728296783,0.03982657679249381,0.011329003901467133,0.09025430024007185,0.006631980379927243,0.0654499919237204
101,-0.10196031032936803,0.029865625167085016,0.003308569898709803,0.07349690738346555,-0.021967161597385928,0.028615032430613384
102,-0.04533051720158525,0.08531823905466669,0.022633927065113642,0.06015033099384546,-0.015999951193545324,0.021710214843251027
103,0.02269997492633662,0.0887047688345807,0.04067536669116444,0.04963544234449624,0.001998668329243448,0.032791664795061896
104,0.06801223383254403,0.044095541691543755,0.013986994065795058,0.03265820529221386,-0.0066060372583946194,0.03767729204483994
105,0.04733176774680227,0.051809492222299344,0.03334607562742141,0.025548181743899747,-0.004032062615038351,0.03681729442477096
106,0.01600974489383693,0.03750626514194975,0.03400921170436857,0.026509707420388818,-0.009982466464068957,0.028866680052113118
107,-0.0066954217125225,0.013339910357022797,0.04200462582855944,0.02993447205668787,0.0026668291410279882,0.023180067963493683
108,-0.0233518190223717,0.019759993843298664,0.03732519061589836,0.03144073335766469,-0.0033339233874920588,0.025926089374540422
109,-0.0266851076102793,0.019463268280771558,0.03469106555978983,0.03265098010224548,-0.009975466917801979,0.019627573341979152
110,-0.01334894018798574,0.030643359003503783,0.03669046578737251,0.02907253496855938,-0.011307394534848924,0.017004671554891757
111,0.01996678895009858,0.033313038025365664,0.026049006864847155,0.0298754085477058,-0.001989521754675989,0.010297061577309446
112,0.03867120274479586,0.026582475687706532,0.020592660187179486,0.0252937354942004,0.005339195691824102,0.009508844039387314
113,0.037952847889890486,0.027052683288029688,0.013383868132986896,0.013781133462549288,0.002669535793393505,0.011159666151374188
114,0.022022716819821653,0.026553139196321823,0.029279297695192313,0.02044248128100688,0.0019977851380364895,0.010914261836176461
115,0.0026286339191319784,0.020038945256808303,0.03668325016286364,0.015695790396180877,-0.0013535632859952114,0.00782793346880177
116,-0.010001388076892888,0.01763091645600108,0.04132091508377289,0.011985099759870109,-0.004015200012322333,0.005700254400216106
117,-0.011324052502836418,0.011503292771697522,0.02735971583160311,0.015957856225791163,-0.004624977599073943,0.00964304851059753
118,-0.008062875403089238,0.012754490659882977,0.029985249839354147,0.022108916032850704,-0.0052925764934588565,0.013638091324337388
119,-0.0019560583948241006,0.010132556156318844,0.029318618112473407,0.02229082960660944,-0.0032781374107024894,0.016225222002591723
120,0.009333590499692936,0.021532146100410834,0.023935427985615577,0.02774375433679992,0.0014039716175879382,0.01766673421040167
121,0.015386968128618894,0.018844955168073378,0.01999138058104486,0.02136742803729352,0.003324393540654261,0.016917784933850512
122,0.016666487691730406,0.018453393137411192,0.023315698604566636,0.02403423255440912,-0.001289354669827722,0.0170815647726676
123,0.0020076275697414538,0.016168823675811173,0.03202969974354591,0.013102095104144822,-0.006742481223875567,0.012998876020675594
124,-0.00265766479672187,0.013984441328549074,0.024725497332892706,0.01806610911874953,-0.007353105049356054,0.010593104550338333
125,-0.000736732038659971,0.013043038652751603,0.00996589018357897,0.013382664410253136,-0.004024578625328487,0.010289531837560902
126,0.005331266332395263,0.011683601822104797,0.01605314794276749,0.020586558029006743,-0.0026793337525428218,0.010486083003489263
127,0.005320558383161115,0.013180464948746124,0.016644851200079653,0.021653090829564285,-0.0066961337857759885,0.009902566570931267
128,0.0026757082019042257,0.014613553239992269,0.019388058898014426,0.021550171783739667,-0.00469600161000387,0.011876586305160163
129,-0.0013365027930479715,0.01317835024154879,0.012650705939417877,0.01627495883297923,-0.0020136841682261617,0.012982809007719665
130,0.001345076588173892,0.01301106628128642,0.020673684270637753,0.019488556840176748,0.001974519334739197,0.010218292555850883
131,0.03669772222928468,0.06050891814890876,0.007301017377518323,0.04276002835388968,-0.004661271112681253,0.026797853295915653
132,-0.0020214053517199145,0.14846773872287652,0.0006410781936107705,0.06511660321633933,-0.03800063423366975,0.08851785019818084
133,-0.08858926723294441,0.19124196530004234,-0.004627034871368885,0.06934750622846333,-0.028705314140204805,0.0938664762081708
134,-0.19799919020079773,0.14568341064836696,0.05065317802349381,0.08621893022916512,-0.059932310475921395,0.10504807232784985
135,-0.10934612429335154,0.20586945802274664,0.08872113650918836,0.06703840932614474,0.047272217364569866,0.14991297046566016
136,0.002647084318620474,0.20831009100436573,0.08601418565982445,0.14637405386814464,0.04606127906652823,0.16479495224164634
137,0.19337737030007152,0.17431304335896874,0.012098164498041382,0.16792973567203712,0.0320178163984408,0.17673385850520484
138,0.15735579578037867,0.18262297376789396,-0.01597992769330408,0.16096357735566194,-0.017260141451436242,0.12769240709868662
139,0.17537275143753614,0.15262519235460587,-0.07269348678237227,0.10913688627591799,-0.026685998835474393,0.1065483697729969
140,0.028681627208060202,0.10717474679050311,-0.06399651164702015,0.0937168358281438,0.014696767097251318,0.06988033860943142
141,0.013324105712175753,0.10534500981590832,-0.03463657465047805,0.12169235717973538,-0.014657778135094111,0.05664850306879256
142,-0.06265068589405448,0.052838934674417394,0.07262292588300925,0.1071693199091397,0.022680109779102557,0.08079389122021592
143,-0.014645677526370826,0.06550925486800097,0.1226932485751131,0.05675103207754926,0.03202198804765682,0.07342688460598941
144,-0.003968408540576489,0.07367722470617578,0.1159263566605308,0.06280253714325706,0.025367578721306825,0.06991134957330898
145,0.0039787886987480295,0.07008042943852655,0.062034151885333504,0.06575146530531842,-0.02395641382319331,0.04561691081943538
146,0.029374988955351018,0.09188957781883612,0.019331004609537072,0.07692794367292505,-0.05262885446490326,0.04590822307097245
147,-0.004006296211285213,0.10303191524082918,-0.10266469515406544,0.1267293631433502,-0.0032778421076668286,0.09881119186478204
148,-0.005938212273088481,0.09995387333529446,-0.08200344012443504,0.16235386172507904,-0.010628954277044234,0.10230498750022549
149,-0.06863577010195451,0.03094093873400659,-0.03935203692437748,0.18382562212770942,0.03002673932692742,0.08628101805756579
150,-0.016015001023902894,0.07387559712563259,0.045301698195374475,0.09072534987861186,-0.013998338090842348,0.05609552434821916
151,0.05396442808287371,0.08663641465845112,0.06532917863012548,0.07123184573846161,0.018642356970270408,0.038860842118939365
152,0.06801604271655473,0.07600588831228486,0.0573199082292764,0.06329990649973043,0.018626129074744806,0.02789523870951539
153,0.031350638469021176,0.08520651448527887,0.055370305015510816,0.06827864356181605,0.013327488218129535,0.03278079667314748
154,-0.006014282915530566,0.0702363896208821,0.026677362215946777,0.04768575534150583,-0.024678263905557222,0.04672470920564158
155,0.016031622572421873,0.0752447143438951,0.011983062232608846,0.04129567841551287,-0.02335557432309896,0.04949206737016281
156,-0.0020597613331032032,0.08859993905840599,0.011275337123360173,0.040535079185439034,-0.011290113034669085,0.05041496885375729
157,-0.04463309399724293,0.08359235309300192,-0.05067406244419792,0.07664006643938469,-0.004664894058218445,0.047294552647041015
158,-0.0646725843437556,0.052589184998154695,-0.05867859953360968,0.08258797795733197,-0.012620772734062086,0.046059688123278
159,-0.016728714702890928,0.07879778909710858,-0.006680546671378544,0.1246426403448401,0.027359648651121473,0.08489354065667709
160,0.09737513627835429,0.11038933073319065,0.04932264759583885,0.077078823956987,0.02802010890108585,0.0859115486117725
161,0.1032682277390987,0.12387670236985947,0.050697911024988225,0.06324507440195479,-0.005960626725653566,0.10133461306855678
162,0.05065630011456702,0.15864076190944065,-0.0026123975839948705,0.03786026979640876,-0.03732776228359453,0.06428301260562977
163,-0.03270837469951593,0.09483002572217251,0.03938012029852709,0.08423000494066046,0.017342044341003306,0.08890225331839698
164,0.03267281405770147,0.1383544294021916,-0.006615161394329786,0.1357444029613663,0.03665764473586461,0.067672353768741
165,0.05069112169358771,0.12417386668274383,-0.012007706279767334,0.15019178636287744,0.045297966434740516,0.06707028161680184
166,0.003371682562908231,0.15614276999257365,-0.013312069073995226,0.14750110463249283,-0.03071243749227996,0.0777717554144903
167,-0.13328951582925871,0.08719748072848198,0.051941572583506145,0.10202986240001605,-0.012689676418557724,0.08161077739501432
168,-0.10730958873039077,0.1160953247452643,0.07202890060146581,0.05633091376872978,-0.04336225609161613,0.0631706959516933
169,-0.01069882861856909,0.1519515282030426,0.005958896463827299,0.052761445449401125,0.0026520468066359004,0.035782163782686394
170,0.08332751327831542,0.050896968471476546,-0.029288562029327243,0.04567815421837963,0.000687268093468076,0.0387268430114801
171,0.07465324489080828,0.05782815127524327,-0.018630134417620493,0.05664148731660494,0.0073443372728017675,0.030609839090058627
172,-5.70505977717406e-05,0.07055884846321357,0.004675303992272217,0.04804909874969029,-0.0019375187596528372,0.02668120950401974
173,-0.03666056779145561,0.046826155955275936,0.03537917778308107,0.0196551613624056,-0.019346610658032223,0.020310033218063368
174,-0.043364755352644564,0.034477899995516086,0.017977288260278487,0.02319887140017794,-0.008647891499447172,0.0281592745262078
175,-0.007344932795476569,0.027051771965766136,0.018683330430022325,0.02296253151011507,-0.006639783924691897,0.027887824016993922
176,0.003973013408868096,0.015800254495806198,-0.0033194876664827838,0.01935334848246566,0.008013349327360737,0.016251932381310535
177,0.011957467465007008,0.012991760646848047,0.004646432025401335,0.0226390000698582,0.004717618885268016,0.015458242445621825
178,0.008650689728423025,0.011781870245765328,-3.7489637063335346e-05,0.0220909189755251,0.0019886073828974398,0.02439312027448593
179,0.01663406943150934,0.018668263854553634,0.01600465755280087,0.0162808897893556,0.0006818386450528716,0.02591862180886507
180,0.007969087940539027,0.02364592512510842,0.012572937042916198,0.014182283477999588,-0.0006511746386348718,0.024841142174893506
181,-0.00268026227393675,0.026127754638274353,0.014035464138009858,0.01204596863720934,-3.264496629217679e-05,0.015710867792885743
182,-0.008008371532821574,0.014984448234186222,0.006648586524505682,0.00572566428296071,-0.004633513434460485,0.012080997159270678
183,-0.0006802592538772722,0.01829224249981988,0.003990734315719749,0.005592657544920473,-0.0020683276021557103,0.014169730804868197
184,0.010008345556392533,0.016229398615721802,0.001991407793985049,0.008123296549794155,-0.0013426703694838684,0.013990340124434248
185,0.0019915069315103147,0.021649839676319435,0.0060232888563338215,0.013023670176738505,0.004647542277124796,0.013473377832472168
186,-0.0013495886655438818,0.02022108093701546,0.010060614874045554,0.012353510372995704,-0.005956062580939172,0.01745806597868948
187,-0.0013652116299170006,0.017347391577200406,0.012757529908296938,0.011359901428947283,0.000652602060666322,0.01913639969968927
188,0.01332889152037815,0.018139352312220202,0.00799232118170333,0.009938435232166207,-0.003998159051898447,0.017790778245547194
189,0.015248532722855297,0.018463729956169194,0.006022755021542437,0.009362933259219263,0.008649918209908939,0.018399099348493524
190,0.00466890093436592,0.02479238742411849,0.007980167356162186,0.009011223563429918,-0.0006597160193034591,0.020740743452787917
191,-0.005368206343213716,0.016845662697648305,-0.00201117059706477,0.023902312320946095,0.0079967209439676,0.024769029990911417
192,-0.006670001732663997,0.01157109292659497,-0.0020454072599583647,0.03194799464145848,0.001312877904778189,0.018886605036415205
193,0.004678888809000659,0.011658020674317676,0.00732769630778663,0.03954829085432643,-0.0012777139617824826,0.02166936885967432
194,0.01538762292766905,0.01346598694865498,0.017304664554996577,0.02976373597627772,-0.00537664536416106,0.017022477858139644
195,0.02130182205922627,0.012414708264716186,0.010651118314036591,0.02560652305682281,-0.005323487814832913,0.016915378894567516
196,0.013356009680380414,0.021382937295653576,-0.003338539297505454,0.009294960247735334,0.006046998559011796,0.010981311822162174
197,0.0059845089960061364,0.021093545695581938,1.0690542064716961e-05,0.012603437939573855,-0.0013732378261546358,0.012151357401248694
198,0.00932626641082477,0.022902174431791832,0.012652369238677647,0.016470856147318257,0.0020154401540267296,0.013031820129909213
199,0.009332196830596506,0.021015027234836507,0.01133440902254256,0.017418823869878884,0.0006433600597667733,0.01282339601858541
200,-0.0013372222732982028,0.0256536601689267,0.010692405788671066,0.01757114973646252,-7.565814390054253e-06,0.015423063851040225
201,0.013318970502440212,0.0554446460595715,-0.005994962381060771,0.01567363091129029,-0.0027257790258047388,0.015306722776382085
202,0.04733735832210555,0.0668693328598842,2.6474642501956787e-05,0.019161883277733924,-0.008698279514895392,0.018868338202403835
203,0.03126932015247756,0.09225979584922345,-0.012006154163712592,0.021871978109337335,0.007289947975355148,0.03055183835365421
204,-0.020661237756557666,0.09370022398381203,0.016660422210893273,0.045974727843167924,-0.006642726749289383,0.04008649102968013
205,-0.07140230494891002,0.04509190748962573,0.012051694893240582,0.05078524519701883,-0.002661208169893144,0.041817529942063406
206,-0.04998219103839964,0.045437272565113505,0.041332712917240735,0.04698410320080372,-0.02199774545186033,0.04501913492146531
207,-0.014663401057957002,0.04434023595174075,0.006034628211985271,0.05465148595702424,0.01676477066092784,0.05865732833731722
208,0.033249939529105314,0.04655535351582885,0.009980286167874814,0.05471989359877643,0.002667283430545389,0.0638837873145576
209,0.026690790001045624,0.05919763432440062,-0.00194884799068262,0.04376671408736028,0.01938850506733938,0.05030936889326132
210,0.016640257955222174,0.0646827395357992,0.020677068460000787,0.0257514806439683,-0.011339395154031321,0.03441833229705298
211,-0.005343856205204581,0.04627803391433478,0.00999900359088515,0.025460589805056236,0.005345855890583536,0.03340014627645574
212,0.004630909729807609,0.028375416762524055,-0.0026662811465327906,0.023387248716792576,2.8719850876129473e-05,0.030498226348888175
213,0.015325309503928389,0.01772683153822465,-0.0033694713172880498,0.021372692721822812,-0.0013321460080966815,0.027964943522376884
214,0.006592939380458243,0.017378428511922065,0.007328354210577504,0.018350693474826426,0.004714515261811724,0.024243971089494373
215,0.006670594106880346,0.017920972324800732,0.016675834628613648,0.009033220543807449,-0.0026929929487687254,0.02870150771112386
216,-0.0013798617137878476,0.0091984363562192,0.007345975756584205,0.01287451208384296,0.006007079873428825,0.026482750879660497
217,-0.0014236152413031407,0.009027970233041407,0.007357817889634932,0.014045408406169014,-0.0013410151206107311,0.020455003001994126
218,-0.0013827640144499884,0.009418831155271371,-0.001953579059833859,0.013008255981048768,0.003301706165470318,0.012028258086359541
219,0.005300352609093806,0.016520424895462016,0.004027858344506129,0.013772799987174279,0.0046759667392931225,0.009552019581267135
220,-2.620304034197593e-05,0.021881763102907615,-0.0027013861781681465,0.018478255186708984,-0.001961175538740156,0.0172596314263158
221,0.003997635412789232,0.023566504384387253,0.010726684451895278,0.02631227358634557,-0.005318454485213322,0.022464236586962567
222,-0.008005300566015897,0.01857245620903207,-0.007996943777172295,0.03737842322548456,2.027445617561625e-05,0.027560752242277282
223,0.007981814990718697,0.020008928421231288,0.008025173900260538,0.041610562683820566,0.002688160601760767,0.023916158481644006
224,0.007980686335831527,0.019660509962011945,0.001975227300716377,0.03665632605650929,0.005333844682502251,0.020590132294864893
225,0.011275945889461923,0.016351726853601617,0.02065808341025423,0.01649295650732802,-0.00197493033078018,0.016534523399777283
226,0.0020147556029115376,0.012093348838317707,0.001284034874113472,0.014931528524166814,-0.002700394222504803,0.01562910814616644
227,0.0019662621600803104,0.009941366212977162,-0.002661522425199425,0.013499339691897894,0.0006474145091932897,0.013286364650270376
228,0.002087302607973027,0.009437918378577844,0.001309009495716327,0.018674761606483476,-0.0033528427319187647,0.013396471381938382
229,0.0073273686371436554,0.009413709344895318,0.007980724394104083,0.014853718452098727,-0.002648025850691459,0.013686925889839045
230,0.009384435681685717,0.010794433366504711,0.009992230742943415,0.013303397809624737,-0.005969655410573823,0.010429548072428036
231,0.015402999917949913,0.007022679276874205,0.002695119904301203,0.006742253395222366,-0.0013220300575734756,0.008515865258153168
232,0.0067233667402780434,0.01596705461829477,0.0026702696196174475,0.005446054373002329,0.0019874559491389427,0.007091507331341166
233,0.0034139755157578428,0.014295373018883163,0.0026685103290453216,0.007478979602798708,0.002615935338270997,0.0072915087910059365
234,0.0013736345325537636,0.012548083803911623,0.0013150349488040317,0.008704395768953732,0.0019831692885842397,0.008988634972304102
235,0.006660566289269029,0.006642377985445993,0.0039962718931898155,0.011705977860389552,-0.003340344162575664,0.013212916944937992
236,0.006734320846710714,0.005504601355460345,0.005948551836206674,0.012697325242346338,-0.0060184432557139345,0.019962467939365115
237,0.0013210184417409125,0.010293537938064784,0.0013039484292141294,0.017336444180657846,-0.007331923192103962,0.018812617683901453
238,0.008016394053811998,0.014110099951332068,0.0099805196215875,0.024158131408478965,-0.0006696242760537389,0.018617745248054648
239,0.00532588842295448,0.015249664874401048,0.012022385697272087,0.023642287471043237,-0.003989586660982337,0.013491471545190337
240,0.005264189206454819,0.013481009763825942,0.01867084024679706,0.016042268550009238,-0.0020108118815189827,0.01465994703920232
241,-0.002701741486335042,0.005872654536933275,0.0033495486790606093,0.01336216745570863,-0.00199244594796892,0.01636138632977569
242,-0.004693654872007857,0.007481187514038191,-0.002664121083630414,0.009284820422732843,0.006662781237660563,0.012876845628743248
243,0.0006921783662230449,0.011953957008688287,-0.000683076230371668,0.010552233467293379,0.004627508269659267,0.013476280110617174
244,0.0033599194822936966,0.014208503323092148,0.00399707191505994,0.010785118808214448,-5.657465913112836e-07,0.014926560604678778
245,0.007346395731396836,0.011604660938830306,0.003974945451053486,0.011224796499389077,-0.002014944194918642,0.014000907478184008
246,0.006647328466067178,0.008870603330256572,0.0033264370198107266,0.010921561683247795,0.0006532531472882415,0.015073775785018046
247,0.002692632026849624,0.008001631493431008,0.005372420269887222,0.007470783605179498,0.003996549892815281,0.009811579514732504
248,0.0006701306706722066,0.009607454816522837,0.003941490196570655,0.008138950040234585,9.953978423334671e-06,0.010746105255052273
249,0.002693223737437525,0.011008319637640566,0.0006924051196560483,0.008276201254122666,0.002045689130285185,0.01141562000540495
250,0.0006552403426194375,0.01416347299958027,-0.0026420864488060224,0.007189989672309472,-0.005312536745423814,0.018449145697014467
251,2.0416009800367416e-05,0.01618969465333544,-0.002688463995484926,0.007307198519011777,-0.0012974420217912125,0.019547241235217536
252,-0.0033184394063236465,0.014682340277557125,5.645249135820448e-05,0.012248518297746083,0.0020350256114961803,0.022741882681289745
253,0.00469590745910701,0.012671535642847093,0.010000145603212692,0.019615791027334614,-8.811153494793962e-06,0.02347962727050944
254,0.00938683020856099,0.01069617919856565,0.014627147979981298,0.017718895353534193,0.0006856064127765729,0.02409491912109191
255,0.008018835547161223,0.011449062776290705,0.013348518203000207,0.01646342422756645,-0.008038112607798392,0.018962217561481344
256,0.0013095467602842288,0.0147717273797279,-0.0013296290873424882,0.01336430819286593,-0.0007135124696972217,0.01629712541287553
257,0.003298501603388353,0.014709439763401881,-1.773732840288112e-05,0.015358722510426357,-0.0006530913440484105,0.015080362110638824
258,0.005995380109551514,0.015777275679766244,0.003347132467460458,0.016510992482997124,-0.0027032140780387996,0.015788797337125723
259,0.010029102221200768,0.010080391671345069,0.01198154829076411,0.010923823095397247,-1.8678328808318518e-06,0.013419328759378547
260,0.005355186880146565,0.008141111202722843,0.00535512004160548,0.011217146735671571,-0.0006790235238777092,0.012327073917925627
261,-0.0006702759120956011,0.00809067722948881,0.004683174507123777,0.010763722871562418,0.0006756636483996291,0.010982390197064276
262,-0.001968763488977646,0.008033592079109147,0.001985172045702807,0.009349096017844824,-0.0013115940054278434,0.010609546167241517
263,0.0012951043525621926,0.011241845735348793,0.0080063591423171,0.006085375260323102,-0.0026249771507942366,0.008792538769684614
264,0.0032988374678846613,0.01046646059196289,0.004012408857931784,0.009103939042175505,0.0026542181395947345,0.011002585888019882
265,0.0026450240928157518,0.010663122360267943,0.006691611524749157,0.009796818583736377,-0.005991538256385454,0.020359813081517
266,-0.004016611789443872,0.007451564507680961,0.0013510700436076297,0.01803237705035264,0.0032683609084368475,0.025754094047891085
267,0.0026426282988247294,0.014707980067472036,0.006692173873870902,0.02347446799078673,0.0006737264094963197,0.024540318044536314
268,0.0052993397953347435,0.015122490698260365,0.00667806669110677,0.0238027647001753,0.0033466683858225507,0.02377096079135628
269,0.008607610372769164,0.013656124918682205,0.011988321727193272,0.018471369435556665,-0.0046516019253405585,0.018844578346624143
270,0.0019399349984952747,0.010048151865798858,0.004704283939015911,0.01535751695562356,-0.002001003723939098,0.02004451361041574
271,-0.0006940165532835184,0.009425186010672024,-0.002007824866587593,0.016455084651267226,1.0754999227612778e-05,0.012555025066139563
272,0.0012923245698881595,0.012409481833229407,0.0013757892764154516,0.018416726577008376,0.0033549550322971916,0.012917477958678604
273,0.0040058153123044594,0.01217536342866959,0.0073449493892318455,0.015196103901635961,-0.003975849212771304,0.013978223810206173
274,0.004011776574329846,0.01131180244143352,0.01199763758950865,0.009092484480603253,-0.0006118244801887553,0.014906320765670666
275,0.0013370596649835936,0.009216748548523163,0.004021906789298023,0.007456091832348298,-0.004010817030490326,0.01275849588344178
276,-0.0066789632847538095,0.012780108355940605,0.003973303441442926,0.008219529865842458,4.4693039095113886e-05,0.01120138975493665
277,-0.0006081099791047947,0.016988320761633858,0.0059874200969326115,0.01229590863054773,-0.0020191520703304344,0.008177522482884943
278,0.0020032542585843747,0.017192048527226965,0.00531271058627324,0.012819500766916545,-0.002597916633722505,0.007930547548468255
279,0.00732042537059339,0.011215485958456865,0.0019521195249015896,0.012482323738093291,-0.0012777277942407814,0.011062511694651113
280,0.006041638742040648,0.010101917889526404,-6.975568937741675e-07,0.007844202534508411,-0.007311403019697515,0.019357590352307927
281,0.0039069292325148415,0.00988494445452283,-0.0006944483044582134,0.011706488076756486,-0.003956284217064158,0.021373397125162293
282,0.006019562061077225,0.012814073476721762,0.006023993534810439,0.019187505611053833,0.004635771879968169,0.026875275023609056
283,0.00392650686394516,0.011829929512260333,0.010024462585560627,0.020446296724174775,0.003998623509893518,0.02644325028492754
284,-0.0006180908350380455,0.014950779078133995,0.018625593108717288,0.01628309064085644,0.0026656235355223016,0.026047908118315574
285,-0.004709965641434524,0.011463109523405823,0.006704351205309327,0.019511854572699234,-0.009369640308400934,0.017073587684070697
286,-0.007956263615420777,0.012134925775489842,-0.004700291306065032,0.0192814657796252,-0.0006820953671411949,0.010476688173391245
287,-2.654525035387825e-05,0.014200472592996333,-0.005955443368823361,0.016062859197970198,-0.0013030624525641819,0.010080399795006753
288,0.00602513301458806,0.012502637226251213,0.004004706367976769,0.01696912405807583,-0.003972637678094036,0.011133005489949482
289,0.007953336563669124,0.008731600121889975,0.01198938562339867,0.008173923044338924,-0.0006433446836616971,0.012148137831404395
290,0.012003572431721461,0.01254659363351084,0.004636095201452224,0.011404035942731972,0.0006749723698345537,0.013235151952956247
291,0.012653214277121782,0.015316902185162724,-0.00271534647292511,0.012335012102916737,0.003347500639960173,0.011008006085585583
292,0.0013150051270090334,0.027587977155928912,0.000670848340883153,0.015848964185257084,-0.0007075904146068411,0.010737471298165347
293,-0.009962911819551147,0.022421997050303767,0.006652461277254615,0.015304759901944033,-0.008017204961052817,0.007973335832567631
294,-0.010687888150343276,0.019972302036185618,0.011323327332234564,0.007888551438185062,-0.005356183330355523,0.010655228781165784
295,-0.0007142581766880963,0.013069815071461727,0.006027938853389072,0.010007382580167892,-0.007339164087116639,0.01980827151191284
296,0.008699511311839965,0.01235211125155332,0.005948600361352617,0.010693845934495573,-0.004630252973976405,0.021035553632401695
297,0.007320177604983128,0.01418926696382905,-0.001324804772430359,0.015881277693455292,0.005296496697452713,0.027310820144531296
298,0.011402972983618679,0.012246757669599661,0.007977961746587357,0.021156699520203794,0.00604183751318209,0.02387890247566665
299,0.004691471968121459,0.01086019869563566,0.013311911272623942,0.022354273560865445,0.005314769238195619,0.02753602473064061
300,0.0007129912192932356,0.011118513627646666,0.020002021150160823,0.012526388065366385,-0.008660301969328158,0.020210335610126882
301,-0.003999243481991025,0.007880797610298416,0.006025610425495797,0.016492696465287962,-0.004694123295003485,0.01847772820879993
302,-0.0012867311295242767,0.011594496256625928,0.0006371172506909708,0.013231724392889565,-0.0033687418600902544,0.009994025268341302
303,0.0020369638194150464,0.011292677458368256,0.0019962003457231485,0.014163978316807537,0.0006435593904005663,0.011649774535857178
304,0.008648873608972409,0.013988485930317247,0.00532359903779697,0.011958292145952256,-0.0013961708537008244,0.014177800053822012
305,0.01069088103354329,0.012370059172535135,0.0006690762234499328,0.010369351042534497,0.0013069101173406896,0.014170030449230615
306,0.006631488925027896,0.015460091029785473,2.2766383832771575e-05,0.009533391072653268,-0.0013590626627311925,0.01303853374229761
307,-0.0013171305316795644,0.013555234290805846,0.005999624253287672,0.010835112035122205,-2.9887229556439335e-05,0.011279750641273319
308,-0.00397841338909219,0.01010205513207598,0.0133527441992872,0.007592784118384824,-0.002675121142084224,0.01045655723884067
309,0.003984346393407665,0.010734165227204405,0.010663793146809101,0.010570675893272973,-8.398014352641499e-07,0.00851850908798675
310,0.013332883334581462,0.007809624449866262,0.008623657471675567,0.00986904754796038,0.0013252621337871487,0.007676854112296437
311,0.009340770210016775,0.013777419928153494,0.0012820394262635848,0.009079995387321588,-0.0033519205748718823,0.012947660475339545
312,0.0046910636784364195,0.013515839933962232,0.004653745723416731,0.010206649502882722,-0.006625287027213014,0.016510220279778214
313,-0.003986973914680447,0.009461339763739822,-4.5212196363244214e-05,0.01571568791624318,-0.0006738170129263323,0.023432317651920928
314,0.004678090762842581,0.013579767421447505,0.011321217648290884,0.019791166589489255,-0.002629307502147396,0.02475469917921684
315,0.0033387279172037393,0.014869836065544262,0.01264204865640513,0.01926043596281792,-1.2027644614182969e-05,0.022765032418921517
316,0.00402902412004892,0.013280156638343532,0.013961937435562462,0.014266197605990913,-0.010689359516040924,0.013282829845419775
317,-0.007992055565333559,0.007488583482466043,-0.0033364016234810816,0.015769838091760233,-0.0020309589028289325,0.008730684115458055
318,-0.001971414402323958,0.013977094867457414,-0.00603950460769803,0.012909347468362918,0.001981031101176296,0.011552944286290284
319,0.0013590902566696637,0.01436655098290145,-0.002653817799427318,0.015122252523159841,0.0026649162103477082,0.012269612868017437
320,0.0086852135229789,0.010145816164847183,0.007976732402806368,0.005815084852142273,0.0013127654675778083,0.013501097747399361
321,0.008684875187279827,0.010215135726841643,0.0046776050259177155,0.00973290081805778,-0.0033891324418827543,0.009589288229069673
322,0.006644899269809614,0.012804591048113387,0.0026558198083084417,0.009685180526533986,-0.004671958230990578,0.009774748178194754
323,0.0033632421465510996,0.01321648397642569,0.00469768598130459,0.011278408981147875,-0.0020282816747871344,0.010700316406971229
324,-0.0019941196943647735,0.011195080007910536,0.0073400627449978295,0.009192281485878612,-0.00199957408306028,0.010807373358421583
325,0.002747248936213261,0.013643766446159297,0.01395372226276983,0.011610149650275875,-5.120425568687359e-05,0.010561831488921425
326,0.005342616809005241,0.011873268631282125,0.012660592655735353,0.012152102616860167,0.002687274450109432,0.012108580744024348
327,0.003372571627307046,0.01312980159177504,0.015941809372487032,0.009548080209341806,-0.010052815258488468,0.027043332958971007
328,0.002677293001102243,0.0145148241842315,0.0033272276752789646,0.01565199198697424,-0.0026077817729840357,0.030371138023370055
329,0.0006074125904022729,0.015096661912860503,0.005979363465441467,0.02380212774897504,-0.002684453732565854,0.03140988742056551
330,0.003343405556840522,0.012511612538217406,0.006004131289280555,0.025845653384268887,0.0006859198845531429,0.02500128472491578
331,-0.0027270559187961515,0.007099612295369566,0.013274734996995321,0.020689646630023456,-0.0013033561493099196,0.023630372352050507
332,8.639604593415825e-06,0.008808257178584451,0.006680592833776659,0.014186193571507025,-0.010002769720160957,0.019490522457878065
333,-0.0033538468790115373,0.010371976046763634,0.002625499922559599,0.010126318188428546,2.114376957235616e-06,0.014083401212382685
334,0.0006220706758005002,0.012274789922189465,0.0033145148447449864,0.01042826452879013,0.0006405834719112322,0.014147688244604236
335,-0.0020426309575509033,0.010539599512448032,0.008658912592657263,0.008705912974504527,-0.0006235710457109247,0.016253107855402175
336,0.003307838313570807,0.008142147758852032,0.009990466215635284,0.007992110329664882,-0.0013496982638971581,0.01570233083076608
337,0.005327763437054233,0.009142396399908454,0.008654953180663756,0.009082608365036013,-0.0019615417588845,0.015192582820028003
338,0.0012950707535842876,0.013787951228434172,0.008677975035340731,0.01050536978078912,-0.005338037755543322,0.020383950585048962
339,-0.0013517385108418644,0.016129354926497665,0.012592928079905773,0.010639496801578406,-0.004032696876943106,0.020474548130584323
340,-0.004639119645499889,0.01348078487162896,0.01336049511877383,0.00895418049328098,-0.007934281650848727,0.01860763828049844
341,0.006012256951477962,0.014398854256831165,0.009295211366709454,0.008185856294621546,0.0006844920730171646,0.010436088082309287
342,0.007346923605140348,0.011632505308754827,0.003372718434116703,0.009064650763584793,-0.001977954903768721,0.014542884560698521
343,0.007993762229441972,0.010982536685704362,0.005986568935499207,0.011147765947677094,-0.006671452445104111,0.021757121391526028
344,0.0006615161430930658,0.010381021471844436,-0.001971541226445943,0.01819615849166295,8.905181172482365e-06,0.02771102014569195
345,0.004604558915043431,0.0112927460562939,0.010021957520259169,0.02413400421080912,2.0757876156743173e-05,0.026413424846098564
346,0.0019990586487717557,0.011550737919678178,0.008607613803646075,0.023944073771463868,0.0013500748440375624,0.02040001365231344
347,0.004657524173490476,0.010046534772910082,0.020637437601011187,0.011327616926412994,-0.0073286603042683985,0.010300952251324203
348,0.0032935035206956885,0.008480507304797841,0.009306695818978904,0.00822312562812377,-0.006045876568495024,0.010523139279761364
349,0.003997959450626198,0.008406660692215106,0.003306609653248132,0.01121300277126217,0.0006280268644996606,0.011307114676814995
350,0.005315161246676007,0.008013823003247291,0.0013279510642191128,0.00881703240318898,-0.001344410193121339,0.012771981892988017
351,0.0013171943284945068,0.011675593439439177,0.003327902981904118,0.009384111713213471,-0.0033845580145082394,0.011369789106245892
352,0.0026881339816805143,0.01173562322278356,0.008015872990207276,0.0038518647294021905,-0.005378201981126504,0.008446416610129568
353,-0.0013301211159279407,0.010741522977966567,0.007993821381414464,0.005259676587434301,-0.0007332400467283356,0.007553847792259557
354,1.045116932407754e-05,0.008720633288122824,0.007326593231739321,0.006516365888104858,-4.17542849836524e-05,0.008041434405038071
355,-0.0020572341267457404,0.011837153994828238,0.009326052519113453,0.008174359860120791,-0.004714545158268982,0.008601003849063813
356,0.004025988349071096,0.013812192264136755,0.0072726334329553935,0.007925438372693177,-0.006677854658660245,0.007814562305710399
357,0.007930615991227503,0.014376467623124644,0.004640694949084521,0.011211307035753407,-0.004692146932910618,0.00913087559209824
358,0.012633648179968758,0.007966125586386544,0.0013386329938693323,0.010096362627693926,-0.0012751429270563429,0.009576836630484762
359,0.007349947958235693,0.015069503043045157,0.00864322058007155,0.01724318778834063,-0.00663362864471957,0.015553951048423924
360,-2.6769224798821208e-05,0.01477083444157485,0.004046331982863636,0.02856714842863595,-0.0026697541698960875,0.017778932655672312
361,0.0007286637343675085,0.015601311303268701,0.011323061171423822,0.03271995844283319,0.0007058514924408542,0.019517375467225657
362,1.813297946760377e-05,0.01242733666524663,0.008762223974893632,0.03154009179387741,1.618993621255819e-05,0.02056026248550573
363,0.000716471383063815,0.011505011943955541,0.018639110390203818,0.015468483099909324,-0.003993231178396447,0.019999744404766456
364,-1.9171763402511e-05,0.01079472098776018,0.008038257975549867,0.012354327911362985,-0.006607259612564061,0.017321424719387354
365,-0.00198292268253956,0.01124718418714489,-0.0020351587796034647,0.012015069216144819,-2.1488368214728332e-05,0.010595715389633876
366,0.0006361731536860829,0.01148136038583976,0.0013313260007623581,0.016132729835831763,-0.0013829762826486308,0.008443023453935246
367,0.0013327243159000316,0.012433949299324254,0.007348538766548884,0.0160526366612297,-0.0019729507863424293,0.010224239187833589
368,0.006001753210639831,0.00922257835679676,0.007334316376354638,0.01682545522038729,-0.005997303729820295,0.011358597097365426
369,0.006641489263862797,0.008573912766588306,-0.0019971405295401462,0.013158325339935986,-0.011324626323898008,0.017823675815650187
370,0.005341819032556179,0.020078118243225914,-0.0006264519480212431,0.01469451696221762,-0.007314792296065893,0.03531706780384074
371,0.006044162082354496,0.02454129988474222,-0.0053201025960562575,0.019847761027066566,0.004644855856495561,0.0531469107313159
372,0.02932881244758949,0.04146858388367938,0.01606005017804518,0.036757095395509004,0.005353770060296896,0.06883116814645536
373,0.003972870373101047,0.06433296215829208,0.006000399222006962,0.041821742398811756,-0.0033395836852419575,0.0693636304155266
374,0.013285493052934293,0.06641570003141749,0.018694043808516414,0.0381869583752966,-0.00667532259784288,0.05978862334038193
375,-0.008676595348176223,0.052495132502602966,-0.0006613431910843233,0.03062577848311202,-0.0020257516887239113,0.03840091520487049
376,-0.006676533804746114,0.05938194084112944,0.00668534501801617,0.03818287844906178,-0.0059925902267649956,0.03327941096567419
377,-0.01873024766905088,0.0639113988672416,-0.022020018162728784,0.05056920939249584,0.023317157949559006,0.0670624527219793
378,0.0014033512293605583,0.08074608355922976,-0.06666226358663285,0.06785454158539754,-0.04601389128377646,0.13774013663519466
379,0.02062082613295627,0.08090923218577377,-0.02726291005629308,0.12088496527149085,-0.004025983840630553,0.1673815775672651
380,-0.09861035924460779,0.20493757671393448,0.04455259957280357,0.14103594646506043,-0.04598882338931595,0.16196370474656582
381,-0.061309427834704784,0.24726144568340072,0.09068095005830272,0.12091303660604318,0.02269767090980607,0.11396030283730976
382,-0.0066639259670560795,0.2674776755167201,0.01728672689143885,0.1357933238950926,0.010660197637751442,0.08846843985941481
383,0.12127402801343881,0.10491038618767937,-0.05405552586732365,0.09905251169004926,0.032016751777357515,0.06402431032206081
384,0.09527130554073034,0.06981218912599353,0.018014565943727974,0.15480827820865908,0.020005427266667174,0.06901101752371841
385,0.020618978900889394,0.07351791690435902,0.07935096669412096,0.14510635764738694,0.013337275242858724,0.06152866360538436
386,-0.008016055047280377,0.08244268039935898,0.10135298369898559,0.12110884963009912,-0.027294691885718276,0.06263332017938994
387,-0.03401960811417117,0.04704025486427664,0.0047127558009839865,0.08971513766957974,-0.0033731746065963786,0.06335652781213733
388,-0.008004439384097551,0.0406626068922766,-0.02669168750196613,0.04145215244635539,-0.019339873633113333,0.0668583227261613
389,-0.006085605011327793,0.040752037375600875,-0.017942662328628383,0.047148159424462564,-0.006051075131879205,0.06349677555596586
390,-0.049305045658938555,0.05351100938272839,0.01796886549060984,0.028533668269543865,0.007970428794427333,0.07314816384079413
391,-0.06667309066872165,0.03764975438686324,0.022706917887926795,0.013905567880964028,-0.02934395369952797,0.0900869629130244
392,-0.03596059084546912,0.06034914235345315,0.0013025456707318089,0.03684638888305168,-0.009373430717131256,0.08644417658600496
393,0.01334173785203196,0.039023254875642496,-0.010625601248569538,0.03370700445885027,-0.037944419808366874,0.06476724731081246
394,0.03130062737929606,0.02052058161220711,0.0020162348629632343,0.04831885854492015,0.007348020512872307,0.022541859546863857
395,0.025349790319478278,0.020220245270559684,0.005334143151904205,0.04363876380439447,0.0047132373717373,0.024731776095374663
396,0.008632003470374783,0.027499833040713392,-0.0013266625374070788,0.04080558067363325,-0.004650077118228916,0.034798896433129105
397,-0.04068488952756114,0.06944967883166504,-0.012005245902719565,0.029576630920878616,-0.018641204055464055,0.029966397982791763
398,-0.0660051348416124,0.05773551282667295,0.009331736523613068,0.032664894070045,-0.019980506005507517,0.021462670089717188
399,-0.04677636473130578,0.0807789527257405,0.01804356542547586,0.029878332624680932,-0.004675936892976389,0.016526888178664944
400,0.018563410324606004,0.06416372876849498,0.010036411647953146,0.030834122316299,0.008643164516429764,0.014912201426763777
401,0.04126448189025264,0.042772915938569335,-0.005959931189577406,0.0250825162482092,0.0032954170145140763,0.020748913794485496
402,0.03663482956673728,0.034862658592344435,-0.009254582509373463,0.020407663757599837,-0.0027093396802644137,0.02035199482877589
403,0.02066381545808268,0.023329491899583152,-0.006648524417458662,0.014386234286257368,-0.011332137110649928,0.014273159115923606
404,0.010664347331444205,0.025608857274684222,0.004011094001239858,0.017408440924534755,-0.002736973200161859,0.01800028962619858
405,0.004626569509355146,0.022231185075789073,0.003967479529021814,0.016752298376029328,-0.009964602167822063,0.02556526189541175
406,0.004673880471664542,0.02290115117273679,0.00669779389062396,0.014992984837653996,-0.005411649233080367,0.025722468593634723
407,0.011923056507778584,0.014465762464427675,0.0026317921450060857,0.013714500521134765,-0.0033310622166252287,0.03643192838364131
408,0.008025931712461546,0.029697593307419317,-0.009297503832463838,0.033655245576475847,-0.0027008922914192406,0.05125111304500478
409,0.007361811965446473,0.029199186533435024,0.010647916471632858,0.052622614782228516,0.009399201145584079,0.06152808557285291
410,5.731459965297285e-05,0.034825442122682446,2.8645902728452926e-06,0.056298237142498986,-0.00997856704080629,0.06001688259918568
411,-0.001291011214494689,0.028362419662807652,0.018656674839216465,0.04331249206113642,0.012668234555000277,0.0480933260376236
412,-0.0074490997207961,0.026522981947619723,-0.005998801478446674,0.027667194667221083,-0.016706832200374826,0.05734918860399697
413,0.007301577949913549,0.024924983660082195,0.008642835108718074,0.020556747862608693,0.0032736642535505537,0.059237931949750966
414,0.01724798801406219,0.02249233970562101,0.010588610364098255,0.024143953298825783,-0.01732954253978327,0.05664663165172892
415,0.009976078088249818,0.02962544229640033,0.003342210246590568,0.028872301690009247,0.0033045135397056355,0.0390567630919898
416,0.010654231361543665,0.031678947014605226,0.002635946347913932,0.030325136060880543,-0.013331839993920106,0.038746983425588875
417,-0.010611510419976248,0.03348455583746519,-0.007954915883308518,0.024684256043506575,-0.0026464767564916393,0.03765525233277271
418,0.0013704049919777473,0.03152048239122814,0.013333011721510014,0.023708773323557072,-0.014012677989366487,0.032727334429946985
419,0.0007173378572591288,0.029915247801638636,0.012711607957784954,0.021566477135509216,0.0033269949629361113,0.0271976227725516
420,0.016688185395059993,0.015560418845959594,0.005284793412579791,0.02871777297781994,-0.000680142858267203,0.023506084579834004
421,0.008699887649587623,0.022004238067895924,0.004677253081296168,0.032825266385541195,-0.002033557500370443,0.03150307862235903
422,-0.010628409996433462,0.023699094170685393,-0.003969491596337504,0.046578494992236257,-0.010671015180513325,0.0330278603238083
423,-0.013300597965780895,0.022263103436373003,-0.0006308503381252292,0.05358846596267771,-0.006728393608839466,0.035938607653533065
424,0.010656005839450288,0.040456577980876714,-0.005335571267288856,0.052479446219971804,-0.004006455993244455,0.03048444733874609
425,0.03397613638153415,0.026545257399356984,0.0019779464942892653,0.04273936711394324,0.0006353661630648708,0.029248212486500596
426,0.031983817440385406,0.02554917016208695,0.015926410493854723,0.027869189283037138,-0.006643628124487153,0.026933409425480677
427,-0.007298065802056168,0.04232255056355049,0.0039876577299123705,0.022630350424476788,-0.00336808116742948,0.02564384216112392
428,-0.0133061013895054,0.038175611971826465,0.016027907340833168,0.027474728331372957,-0.011369448271219114,0.018401408095416894
429,-0.002624957512028919,0.04645922674239831,0.003968863008447694,0.03155818954633601,-0.004699082866426262,0.01843149365663273
430,0.03335343011065173,0.02737274854420102,0.0013466132048662236,0.033351919833434274,0.001361062588952713,0.016739428296242573
431,0.02932037952416314,0.027401638882467116,-0.0120323285195186,0.017332178795134462,0.003298372586374776,0.013100841981593682
432,0.02464856079114069,0.025908001357012045,-0.004670248826915574,0.01588707461268688,-0.0012715907902932956,0.015025142436343241
433,0.005973808205346627,0.016422094060653467,-0.000624629500435902,0.012747765937707847,-0.006015608764974317,0.012951286807452705
434,-0.003984263108202808,0.02166944886912316,-0.0019677434726868177,0.012931941604241574,-0.0046228225423508166,0.012904121946451033
435,-0.011337684821127937,0.014755392005707538,-0.0013374673321816537,0.01775818917178348,-0.012010747422360635,0.019685666346713544
436,-0.0013242616076301608,0.02291469987240768,-0.0025907269063888956,0.023525076775403175,-0.001985393983286235,0.027905308855201056
437,0.013991957996325225,0.020667137073848495,-0.0033252212651854224,0.033198188160953726,-4.675673277661797e-05,0.029255881877569608
438,0.02396536748480758,0.017801913573993605,-0.002008240528524003,0.03424772576023895,0.006029384266607272,0.026698438816770902
439,0.019943274177952428,0.018401521419494377,0.002036471583630896,0.029568100240594374,-0.0033078007368640043,0.020768817577988787
440,0.008704524842812079,0.021597143674098904,0.005355540021415234,0.020338883576917585,-0.007976417075865381,0.019938106661652775
441,-0.006037275552875465,0.019853560323035795,-0.003967750793861432,0.01925141089264965,-0.0033507077825342037,0.014733887051624234
442,-0.007294910123847272,0.019297519992883785,0.007368212992250455,0.025176805275783313,-0.00803619449191949,0.015603864373738606
443,-0.002707206460899223,0.0407987090884032,5.126387145255873e-05,0.03297976328519106,-0.008679452522571756,0.016074183282203978
444,-0.003974730230555015,0.06513984518173613,5.0926279001576684e-05,0.04027447089677111,-0.0053971330951053205,0.020599354929248265
445,-0.006737921938610284,0.06983623013570105,-0.011305647972954106,0.03554478095861141,-0.013301734550654637,0.030088239900486865
446,-0.013368345667196711,0.06056183477621012,-2.2346362308272213e-05,0.03511113515274639,-0.0026495600710677246,0.033326425525173994
447,-0.004089564994258973,0.033267712078098886,0.012625637499657049,0.04086143268252585,-0.010638401279770442,0.03147757246151291
448,0.01796421627887303,0.03961987809595914,0.007957311951047966,0.052700897396999256,0.0014233982510168694,0.019951135807728435
449,0.03326718703684503,0.029089438383433603,0.002645564249661226,0.050719800589531815,-0.0073119610973606496,0.025927754361953066
450,0.021347171561054236,0.042346222971236816,-0.0039459863236179496,0.036340328697620154,0.0066866931995879795,0.0541094068401435
451,-0.023310883503137887,0.08697038281222426,-0.029332951013797143,0.07095501308737841,-0.008036024067338698,0.08211794799656262
452,-0.0007869800155575479,0.15384166387498308,-0.016027062922994093,0.11434372995912868,0.005898698516226075,0.08891201980143923
453,0.04074666812949488,0.17352451734678168,0.01469043691070897,0.1332333129953044,-0.006004112695792475,0.08113932496792581
454,0.049891575652874505,0.1519939646608554,0.007224200455472131,0.1307260659633571,0.005273618919490067,0.05769914821238861
455,-0.006530057255436975,0.11199177727975829,0.012609022422602291,0.10800856234383671,0.0005753937313264327,0.063784511839042
456,-0.03940022411324688,0.05300799171366505,-0.04192835779559007,0.08512705714545075,-0.015315385525985301,0.06774395576322732
457,-0.03584174032286742,0.05620668195198756,0.02131844429711116,0.07939750563789888,-0.016741755074481984,0.06817513705457869
458,-0.06277983561391386,0.07700966018635326,-0.03533262220118079,0.08982905548081681,-0.03399102737896105,0.04117432866970774
459,0.004090279679555364,0.18090404065545573,0.05598047732342645,0.14597183946343195,0.016060641734626815,0.06479935232741686
460,0.05122171178597625,0.1930953002223272,0.03332149947290244,0.14924925698923464,0.021370414485293626,0.06193962960449157
461,0.09127412809254255,0.1963665256049317,0.02323529264140249,0.1576746836125139,0.006505142589994187,0.0968374274391308
462,-0.03223300275803273,0.21662547783512956,-0.06919994016382806,0.07398964338356136,-0.02078837727310706,0.07805854774376284
463,-0.0736451655407895,0.23194008035052005,-0.1314255675042955,0.08247943735911846,-0.085086853056131,0.11856424590525341
464,-0.06452779541102463,0.21792710098278004,0.03530285936761337,0.24563501964306889,-0.011489055461628128,0.1565077511414218
465,-0.0853845696694649,0.20266873865322618,0.16395515538219996,0.26397014415989756,0.05444749719682521,0.19262444461727954
466,0.05287371009447287,0.312946381644303,0.11062384141028282,0.33579134238678154,0.029324983820512445,0.22562318413434881
467,-0.04353337897297383,0.3732305837898525,0.004136169141707308,0.305594183924815,-0.04506089338558947,0.23974345536461017
468,-0.013209204103313847,0.590612427560556,-0.05257083988984021,0.2515224236314637,0.15039427085460222,0.5001810110077569
469,0.05094441589325851,0.8709334366923517,0.14737245152252348,0.16135361041375287,-0.0050068991788676095,0.7497098287836655
470,0.061218635409625397,0.8592944650885568,0.068416115804134,0.2297215325800806,0.058747110912328565,0.7735061489763717
471,0.11994932163493918,0.7125343522658021,-0.06558146402648632,0.264512398758687,-0.22230562391182174,0.574857710764772
472,-0.1052556390951156,0.25098798287117846,-0.14798356924590736,0.20873902416914314,0.06871280126461836,0.2629692337836815
473,0.188788321459309,0.3973730041447101,0.010021111048701048,0.27126000702376557,-0.06951112852485555,0.24214238222585763
474,0.45526182022298334,0.46197714736746726,0.37431363604059964,0.41969320948442057,-0.14896373065284813,0.268461375184413
475,0.5681987520723747,0.33085627705827314,0.5966330478154703,0.4128202700634161,-0.18214782610564592,0.2633174530192518
476,0.6239188680477696,0.3657225591568973,0.5950888855586918,0.4088096507793795,0.08068490690566797,0.3870418162752097
477,0.5853300147508038,0.348191382744213,0.374297350770363,0.3517470523837794,0.2679675211204865,0.2743231426769422
478,0.6775552572186713,0.2767652325140145,0.07071953314120673,0.24665984529507315,0.12379827704558578,0.4103646725963072
479,0.6124278533112376,0.3509531789520421,-0.08989914391020498,0.25129670034101026,-0.2603693844861333,0.4247968708234435
480,0.7754321445249375,0.6086579763795757,-0.07783271768609597,0.2651957282504536,-0.4515869145847307,0.26463043805194236
481,0.8813414529936353,0.6810271536124386,0.2774581015457098,0.4735763896364723,-0.4427730131358939,0.295162146665829
482,1.0259092981854006,0.6860486204218841,0.4160645768553314,0.4520280820464546,-0.43952269444279857,0.3723122057567724
483,0.36840145826973997,1.017523712735821,0.05725197358199368,0.7990835593568104,-1.2489389089659915,1.2042089496696782
484,-0.28324736181903365,1.1729702289877484,-0.7312795571248896,0.8194217472654902,-1.450876399707734,1.1189899605244948
485,-0.7987041111079548,0.7395604097853937,-1.0672595816855344,0.5080726250146641,-1.3092780051569097,1.2105621922827057
486,-0.5865008116404941,0.7824033230758467,-1.2371399981538242,0.5718043244257967,-0.908236346912889,0.6673158169207671
487,-0.28843202909341925,0.47951996632016214,-1.0714317638220208,0.675746981141876,-0.9111109888264506,0.6125458875830228
488,-0.26162837829473,0.36667722528901325,-1.198159878371011,0.587087126173984,-1.5338734513608292,0.5493834829648409
489,-0.42501535794304884,0.303286564078886,-1.3602250378798015,0.6085979445133004,-1.6893151838197034,0.582792228692225
490,-0.4936962697287958,0.23152010746201737,-1.6170844833788776,0.3767960387732413,-1.7298448084269233,0.5206191517042414
491,-0.29457927203593154,0.4005691324373782,-1.6375038441938778,0.39607171884932424,-1.7760053531843387,0.6740418646428263
492,0.12616863008386778,0.5365218085003282,-1.6336100440482366,0.37365010839775864,-0.9975007850360679,1.5011900538180825
493,-0.08019968493034252,0.9785889586303693,-1.7688628358713057,0.8258732856122726,-1.5177768717285678,2.1306347136952453
494,-0.576420637341228,1.55573738005825,-1.486890963932499,1.1313233849051592,-2.206819407142558,2.5639958353832037
495,-0.5999114639379438,1.6876093833955497,-0.9503999574439228,1.253006311128688,-2.4225575333240528,2.182928915124383
496,-0.2939956695083867,1.6409352355118914,-0.15261469385327198,0.6068451763829161,-1.4424083654142763,2.1506309089195286
497,0.5133545787178692,1.0708066447041757,-0.051272907150056904,0.39855801125845797,-0.16330642064274573,0.5714484329011607
498,0.276058417044216,0.8618824559362118,-0.001389376277230041,0.15866549659962886,0.0026871107628035165,0.42837764027977804
499,0.20121671863374527,0.7375228399929462,-0.07342185819024044,0.09838709175907308,-0.11794064779635056,0.3273797275189463
500,-0.08817174580148178,0.3707541561822128,-0.08815782489202745,0.10522364294036532,0.018687271638755845,0.23727886926858455
501,0.06655964041876082,0.34762241854073045,-0.08064995276097431,0.0958244747361528,-0.34191481160139875,0.4171115006717333
502,0.2657084236418785,0.11762253659799607,-0.18728184280098775,0.1573803232742179,-0.4419025063512202,0.3729255883243973
503,0.4690943397471588,0.4178580973628354,-0.47546236648725154,0.41750825828987054,-0.2383034859074761,0.6187244373586089
504,0.7670715242156858,0.5556845494277126,-0.6162390652005496,0.35362352450245205,0.1185033124868992,0.4240337506701753
505,0.890561459345758,0.4539651311162218,-0.5628593307400133,0.39604537422050556,0.4242138734247645,0.24403103521070066
506,0.7487430130540973,0.40892795515217983,-0.12142253759731556,0.38960723928937485,0.2459877908176652,0.2543274600219114
507,0.5173912953265131,0.10547231161345826,0.14388158080114363,0.256580928525578,0.07060682139487574,0.3773745874816074
508,0.26406584596542554,0.33947765937208146,0.2716496677007295,0.17909691625983332,-0.0689773502466901,0.4059828906156663
509,0.30316612450864877,0.3818214171453025,0.08342052054549592,0.290744149288605,0.18259303988175327,0.5689561408526098
510,0.17906754461852248,0.35028703876443823,-0.04103112090209213,0.26539650905624573,0.20818206238639092,0.5734044343445316
511,0.16807178854741212,0.3239361663441111,-0.001991167570288632,0.2652527759993021,-0.18398825184871523,0.7792489706932479
512,-0.09263954787680347,0.19504091872838542,0.12990860907134305,0.1888961447047975,-0.7686040868852919,0.41443908570780086
513,-0.18196789150184425,0.07134651712408333,0.1612779892800701,0.12724303583924235,-0.7653338839632311,0.4028519713820111
514,-0.03795230799666075,0.23421777975241415,-0.012007578986248886,0.15738895743829703,-0.24598433932994604,0.6277508405423203
515,0.39073667898999925,0.49358229185135055,-0.2211587336461664,0.2122752829525514,0.32720413897358724,0.45335530294191806
516,0.8060597587591362,0.44600200164875653,-0.41671151479750507,0.18925074875176684,0.7559932291398034,0.25590312698589385
517,0.8734566967377483,0.3691508547385971,-0.3919231345897124,0.21546618289993089,0.7379581423542482,0.2654597144168313
518,0.5669104695446133,0.47192179552480645,-0.2613108880403109,0.24140394170894316,0.7146892377339603,0.26079047320924575
519,0.3592276438775472,0.2480112010441693,-0.3233867083495922,0.3465912263850347,0.8399445563701183,0.48165478712993615
520,0.8507461129148768,0.8681468404325524,-0.8059821368673812,0.6537153877509979,1.4514116508401254,0.7402228799607984
521,1.7390008896810543,1.0069261287160634,-1.5735325740655612,0.7061253322466846,2.223867573760656,0.7753403132258677
522,2.2705090550240645,0.5375506457159597,-2.072046168924271,0.3994267999478513,2.076664890234681,0.9215321587068567
523,1.8818548724380055,0.9826448052971793,-2.060789909354659,0.4609378351824269,1.4363915055458598,1.2207026170160014
524,1.1104658390959796,0.9281093216675482,-1.613228511189959,0.5941641789467188,0.8022897115327012,0.5962464815681527
525,0.21471850828430133,0.8762553243870057,-0.9527199098126347,0.7690512477560707,0.11589574212822214,1.3101941012989995
526,0.2600569981356822,0.8820097126606746,-0.5572329441758531,0.6260605960348697,0.18578125263795126,1.296158739401517
527,-0.3077149103200886,2.0495557986231234,-0.5873180302316807,0.7142796497395415,0.13900128551940433,1.2345442530580488
528,-0.8714721119922546,2.5812538211959644,-0.5564711449327581,0.7028420287826594,-0.2005502670517959,1.4469280654712784
529,-0.7800868380944161,2.66421720517392,-1.0478567730933597,0.9979712400638283,0.03220799974768463,1.8625078536367234
530,-0.42208178151562487,2.0193120563947247,-0.8416234784502378,1.0032637264300117,-0.2518248526535364,1.8411887913340415
531,0.09888933345054236,1.0087644925930235,-0.8517355074407537,0.896370723631434,0.4430301510690303,1.2645751305001158
532,-0.19201434077710383,0.5580131815329826,-0.3023125754787523,0.33094911660764653,0.09292589396814684,0.6507429013098667
533,-0.24563635504700887,0.5002842214227358,-0.26493808405287933,0.166822191894107,-0.6518122490428033,1.1622988011200202
534,0.137897257969326,0.7597451583634991,0.18052575213277633,1.3361060134127019,-1.137144460244148,1.1724521716591512
535,0.2205316945109164,0.7633406244234339,0.8101133785886468,1.4559076100562376,-1.458433386999083,0.9457371794003459
536,0.37742236212819064,0.6852132675346694,1.4228873670914832,1.1765440170223782,-0.9594785561042088,0.7977092822828354
537,-0.1469377934283743,0.7559828387174409,1.262382834024962,0.5349876637000086,-0.7182770434772149,0.5842335138430141
538,-0.7572003556269297,0.6918069812418838,0.738636306177319,0.5528596281379157,-0.5160506864977602,0.339379078391815
539,-1.0565805444787564,0.30197215564374347,-0.011234866285973056,0.6707222210672457,-0.37125619909488383,0.31728676293293945
540,-0.9679200186776117,0.2866337932657697,-0.9559522208832127,1.0175553477402288,-0.04070259565230381,0.27834574288676356
541,-0.6968351083709042,0.2439807941150013,-1.8719890434103874,0.8465344581214875,0.17908510651483034,0.35819459866018805
542,-0.6100360067163683,0.21532260077406262,-2.4693770666746144,0.34745421611261756,0.4612220599984436,0.26745042762875093
543,-0.31483145099397275,0.2869204349063925,-2.260534101783188,0.6382735431206428,0.5566939542013515,0.30385891736597154
544,0.01189213367584962,0.4585089453423311,-1.5459853912195747,0.9598958355449008,0.8739891954749655,0.6332656733486326
545,0.2315518448688941,0.3489671730306046,-0.6603232240821169,0.8153743835018691,0.8312460802038774,0.7817561801077737
546,0.328389331828849,0.31302803747106905,-0.04699116157812592,0.431806021739143,0.8617163833435642,0.7723728489069949
547,-0.09864352287858782,0.74372100401548,0.2636937796069047,0.4362912983162278,0.4421221445529778,0.7949074353786083
548,-0.5628994024667244,0.9994119258825951,0.031536099917387934,0.5744225794097926,0.1632117421195506,0.8185471442558201
549,-0.735339880652198,1.0584810869827308,0.11324030094482694,0.6299844866989893,0.07891908170181204,0.9035342923262475
550,-0.7705406055400584,1.1827516975566215,0.04602613277938195,0.5412010302289918,-0.2713268011744524,0.9693701268478655
551,0.06751595337363667,1.3200965740761348,-0.12345003672829427,0.8149316103045376,-0.7279194168919574,1.1744200210610727
552,0.4963207986726615,1.2364349640333034,0.15620427791158817,1.1710385021684513,-0.9180898377535954,0.9047483973343
553,0.4817649347556769,1.069222645604633,0.09251642967920864,1.1957172377699796,-1.1643335423571557,0.89992365414135
554,-0.35731982459287864,1.1024333142906635,0.6782373356303797,0.8381097108524485,-0.49602099662548294,1.0437323285205216
555,-1.1562165880754753,0.5921252050168847,-0.44894719767382607,1.225131208146062,-0.5279632411052808,1.063477187352123
556,-1.0837223600310273,0.7804103570999787,-0.9268942749341094,1.2039961315697172,-0.04557389411734385,0.6472949175525291
557,-0.388302646028589,1.1910979647402,-1.2263235810812256,0.8116601112067624,0.009839638971991057,0.5290120855474608
558,0.22150514759217282,0.9360660024248497,-0.23169238367755604,1.0339903733396605,0.09552825471019358,0.3579243915716221
559,0.4001126232898931,0.5611068179685904,0.6551525957273056,0.7815821757486797,0.52898469728687,0.554274121529897
560,0.09877084148579961,0.37802795333707795,1.45901077084266,0.5695619415384718,0.4145333462912726,0.6366532681718552
561,-0.5460598756973296,0.6775766803557375,1.0855793952956394,1.1179871976524998,0.6526368270231551,0.7080753713257143
562,0.630684419273728,2.4421126727891616,0.7522039545674011,1.1736178362811622,-0.8452909619376031,2.0395419980644256
563,0.41585056456785113,2.562035499045329,0.48773882459285833,1.0274133436241457,-0.7815866137466102,2.142628720351975
564,0.9324515087696946,2.287961623713147,0.4257261674505031,0.9219362591495576,-0.14272786317726033,2.678080115128162
565,-0.2046168493418402,0.6555010207590019,0.005005492942043658,1.1186881992760487,0.972613070953369,1.6571431739849534
566,-0.12266744271571034,0.41254369609463665,-0.8689543367449633,1.0374986782171916,0.6127384916699113,1.822496055606841
567,-0.050043118489657416,0.41560923591995014,-1.1570866105429607,1.0239393308255897,-0.3770621178385427,1.168647556794885
568,-0.602444000063652,0.9215326107156121,-0.758415409738943,1.2830408642983127,-0.12362565991100563,0.9173222539915508
569,-0.39231281614052826,1.154930660593232,-0.26876724326522194,1.1207832401064155,0.03059643394039974,0.8852873016074372
570,-0.1912234444507829,1.3581898079192791,-0.036962511288570185,0.9906163166503857,0.017327558434660235,1.163838370421614
571,0.3248121299892069,0.8907318799947725,0.05708570583861524,1.0235086625575633,-0.27882301891404687,1.019497454150801
572,0.5933638255868648,0.8053393948662301,-0.10409372705255454,0.7676345689947104,-0.27061433978553356,1.0045861385244086
573,0.871288711098925,0.9143483771110767,-0.2893089811950627,0.79347581509872,-0.19574296084816908,0.680736530681179
574,1.2353050439657365,0.5833999507603265,-0.3776685367201974,0.7806806891440722,-0.06499191805902065,0.7130544435922612
575,0.8256883659101778,0.8959589066126179,0.7896889482482564,1.8498854019483963,-0.039153164146937515,0.5919196213015088
576,0.010140682464850581,0.7891024583848273,1.7487172224837386,1.4089203891980642,0.2724334362784419,0.5405991427370377
577,0.016241099481631327,0.7639570558604099,1.9138776860711215,1.1435089183121743,-0.14516205461947437,0.7967612353038068
578,0.5439540881715951,1.0057481457948576,0.9766320688014193,0.8263147543189577,-0.23393885854448768,0.7609486769599252
579,0.9361595006306614,0.7146748012705508,0.31567795065006377,0.457361088440719,-0.49887024481140185,0.565360019862995
580,0.6968314014989879,0.7753778803306282,0.0744579006898715,0.3328450091953771,0.11289893462844251,0.737619089037454
581,0.0012826838166174544,0.7147321806522939,-0.23884885261241245,0.3308102444999773,0.13374809662048748,0.7965781029144168
582,-0.5185022288810638,0.6278340258568225,-0.09916810177808971,0.4303381043308461,0.34584676761107436,0.7188386123038042
583,-0.7257419215505897,0.40082611644375127,0.214411642873304,0.6703395475886081,0.11781305509208291,0.5758248549351774
584,-0.389617749847444,0.6391233296564717,0.5106232171932459,0.3948968383524997,0.37175924745881767,0.5727610438279945
585,0.001897091250390968,0.39699602967007364,0.20582278565576925,0.6997708422159532,-0.11805407292791058,1.0115029632552948
586,0.1486506581728365,0.2871075259232979,-0.051623912845107145,0.48578979412950135,-0.28837604911668036,0.97699787895494
587,0.05281834442941995,0.37401874969474613,-0.11376112424600075,0.44397919389342777,-0.18496053796416892,0.9496460441277702
588,0.15572855842095673,0.4257029240582103,0.09576427525651689,0.14741072730394425,0.08694253689477663,0.5011669980147693
589,0.25469657333582124,0.40955394436980375,0.06600022958064111,0.13769334897450705,0.15869088081528868,0.4403733790329124
590,0.21118846177142944,0.3936091028226391,0.1275323202888035,0.21459848792301223,-0.023985024560867173,0.12363217594494569
591,0.1467774292665362,0.38938811387902644,0.10190143497634925,0.2665620191559921,-0.03398812885037117,0.15762257158303725
592,0.03742449639396461,0.384677368265975,0.04345694510021388,0.3184868844264533,-0.024063850813356068,0.15223095716870846
593,0.06341037030735122,0.27704140401795474,0.055880088521815384,0.31667974297428075,-0.06521388237691662,0.11229111480504746
594,0.039607967405138965,0.2184978334783946,0.06842956817279759,0.30665360129793984,-0.0033214117736085754,0.0793566009149513
595,0.25017719718987746,0.3248354159789011,0.14670018759973721,0.3273695678750666,-0.02064406455256827,0.1844190663301781
596,0.49415293157831996,0.25151281275700454,-0.054041179863462754,0.3495436548932145,-0.03662067486740126,0.23528357620753226
597,0.46325493288069836,0.3493698340105061,0.1859644956400037,0.4822873537417464,0.012590033370118821,0.28127037976965946
598,0.09603138309670539,0.5052249946937699,0.24533644957133124,0.4598363665819849,0.1272952405174381,0.24520090924379845
599,-0.14996076164333408,0.314847393546717,0.2479663871065176,0.4216563450847594,0.09659931031140839,0.23238322461733946
600,-0.17143539357663592,0.2225844441147707,0.04942941383045858,0.29487379250445633,-0.013290664127185615,0.21156408190804493
601,-0.07132139595169809,0.11007493370563169,0.002646899824611073,0.20033800858423426,-0.07936716895171295,0.11269213585490621
602,-0.022103351711312273,0.12084698378302304,0.10601894096340982,0.10074862640613144,-0.06005546633045356,0.10680754833214684
603,0.04140397941501112,0.16448663953053536,0.12597251180013078,0.05296493505597729,-0.009325873279363963,0.09011183763607575
604,0.1299554455282744,0.06727718950119617,0.08403561604079526,0.036775381697254673,-0.017342541048938894,0.07911321671158232
605,0.11198959498673608,0.08145870409382554,0.09665107289456704,0.03434352453173391,0.013327083102358372,0.02489302187705284
606,0.024588582820405457,0.07390989057725403,0.07132302035205243,0.03153559896819016,-0.014684776853619878,0.02983286484860464
607,-0.03532285398159727,0.0428450220745538,0.08600903711087679,0.031970334703902856,-0.023341991266422283,0.029794159195604974
608,-0.048014178407782666,0.02709985427838131,0.07531987845433036,0.029363432716514794,-0.03662692569465336,0.024868105012459615
609,-0.010664345263577124,0.05378473991705085,0.09535199117849423,0.023734659911112975,-0.024651966127417803,0.02299596800921035
610,0.04865620647517957,0.05723357578319809,0.07926966630320292,0.028388674311156773,-0.01066588620446294,0.03180867745507983
611,0.0846308669486416,0.025128980967523026,0.0673035683989096,0.03674438833636492,-0.007342422984319683,0.02827886525242696
612,0.09999609806342792,0.015975218952066262,0.07063446515673828,0.041820768573515896,-0.002684428506484414,0.027317483980100758
613,0.102642493721267,0.018538929790746544,0.11333819621756394,0.0631953095658834,-0.011359920773453222,0.019234160799743667
614,0.11467734952878161,0.021645510385348427,0.1492199119314679,0.04114216039892455,-0.004727862600823262,0.017080249768558656
615,0.09403005347922345,0.04354557822108125,0.1207470491447024,0.07037171215211757,-0.008684549798652975,0.016205582119556822
616,0.07998866005258903,0.03927452937388714,0.0752983386813239,0.05772196043583465,-0.0033977535364394774,0.017399551163125547
617,0.09532727358581958,0.05601341250760443,0.05537358188992473,0.024104024609687105,0.0007030972959128837,0.015265481159713433
618,0.12533931029850998,0.04405474759671454,0.06864879551149285,0.018825338318361348,0.007288398675458632,0.012937605429162531
619,0.10329393918133602,0.07498312328910504,0.071337842440811,0.014824743177132498,-0.00464655584129652,0.021808401920828405
620,0.021273584515644782,0.0919026413016094,0.06337105108940252,0.013049450416152707,-0.009375335779331147,0.025737888233087775
621,-0.029377454597771392,0.0466769974855115,0.06596214163878486,0.013517301694069356,-0.007357318697762366,0.028607540278185614
622,-0.0446880642241631,0.02845811471079979,0.0747145481488375,0.014123125264126925,-0.013995214916847505,0.034296439114730876
623,-0.025979301370011466,0.0188639231269442,0.08063004756637378,0.008075900286678093,-0.022041826150736934,0.031903391212249485
624,0.007315945132529516,0.055149597684487,0.06736379031891501,0.02446726428401985,-0.03729902614099307,0.011764439184394583
625,0.04404906774817186,0.051733523912046005,0.051997663438905,0.025980502964100188,-0.018026929650361758,0.02383781183511115
626,0.052000580853915,0.043529912402934905,0.058734637836180874,0.035231708430094724,-0.012013268576601926,0.023067927250232708
627,0.045300065554519285,0.04119828058676783,0.06332618414830424,0.032521685200352764,-0.010021114504027772,0.03662367177448149
628,0.04601133607793969,0.0416111748340324,0.06536645019567004,0.029171178561965865,-0.012680175458425246,0.036372142688380564
629,0.06261748164900904,0.022788433667610623,0.04931095484835118,0.013909860242873226,-0.007371883247259842,0.03488729933335152
630,0.064062053717081,0.015434350968548923,0.044673370259315504,0.00651102587967664,-0.0019579614774340864,0.016582653175580886
631,0.07132537625642578,0.023283359640820574,0.04735001307113687,0.008872484512265199,-0.002694529625031423,0.011081946248326365
632,0.06333806384260711,0.03448315576515654,0.06003457269922284,0.0226266738607034,-0.004573617146152077,0.01178901485529043
633,0.030740647763659545,0.058176067785154925,0.06932333587462777,0.018369981977897576,-0.01403570291312788,0.01677416692840944
634,-0.014097362559438017,0.03463996388593446,0.0787505080039232,0.012308311656695993,-0.023926403372294028,0.017916185004153568
635,-0.02061706126910036,0.024439549414379994,0.05935835868733953,0.022893000999501173,-0.023360959146762915,0.01837036453640872
636,0.011954887742376647,0.04232116693069298,0.05666531212305591,0.022368278349158808,-0.011315766430480744,0.019210511253403426
637,0.03869394045598809,0.028005196927685983,0.04068164889833174,0.017233260912860166,-0.010001816873105014,0.01585973868481401
638,0.05068150111099432,0.016146732455484116,0.049368277435632234,0.016118824208132203,-0.012020334454855229,0.02246500048431103
639,0.043943296765974894,0.012502812393231963,0.029987933948545573,0.026187699218348248,-0.005340832291085263,0.031073387689129674
640,0.03601032775744593,0.01337950330078781,0.04205314763247408,0.03160697278182426,-0.008706148776296985,0.03494904212484984
641,0.014647831604288593,0.027436416193853792,0.0453378598048075,0.03342055580962884,-0.008656157020260418,0.033020573851750834
642,0.016641666344882827,0.032527571647262464,0.05601945682635295,0.01730703967054719,-0.021340070981631338,0.03438906896369864
643,0.02931012081183881,0.03884586933471991,0.04198768941709911,0.020451353921968722,-0.013990121213931594,0.040272772726660765
644,0.033995958019575896,0.034449912056369394,0.034605248999632826,0.01496054330540869,-0.006661820127745707,0.043908900408306965
645,0.010620973141710175,0.03888743949520045,0.04866997831709934,0.02618274412230798,-0.014685586605778208,0.03919681797005277
646,-0.0006145149467487713,0.02964569606031512,0.05331929746710202,0.02163153986285589,-0.008712788141459735,0.03008857496013106
647,0.030638993987132553,0.049427112176452376,0.05265608937900333,0.020860813018966546,-0.0140290870349285,0.02153646297172188
648,0.0486723919734454,0.034880691710942116,0.036002484657770555,0.009967549492043676,0.00533922546982416,0.01159830394800204
649,0.045963210682242336,0.0341209832705816,0.04134874729731882,0.01372288267802165,-0.0007216707122058542,0.017057832913914803
650,0.024639686794492764,0.015211457347204872,0.04536471719601236,0.01418091884392848,3.27481417442962e-05,0.017675528008252776
651,0.023293961206035014,0.011395043497002667,0.04865000019653084,0.009783207844531896,-0.012029249122700085,0.016488210163263753
652,0.023967359773012526,0.00940076687254663,0.045982987811659,0.009333865044492023,-0.010672226972017976,0.01999511215099981
653,0.02196514406791056,0.011107543921389056,0.03270877587206599,0.0166787884708915,-0.006639353684510337,0.028498445659109303
654,0.02534737757872216,0.012986300130176417,0.0433795682855598,0.02905490998825127,-0.002008235489276935,0.028654637915054963
655,0.01872859071537716,0.019315972860847446,0.045331265998509195,0.0319053602668493,-0.0019856439935047295,0.026826325288852714
656,0.02534131722256112,0.022192460621551044,0.05267652842936025,0.02477233923955813,-0.008591101860744356,0.01836168388748736
657,0.016666520329698054,0.0204466029472203,0.03532683335095063,0.020205019817398025,-0.007328862750879889,0.014772432925929627
658,0.021338835535821957,0.015816655975369118,0.027329457094896505,0.00977361799731981,-0.008011406813924584,0.011509615318410282
659,0.014668032696530926,0.006126817381632399,0.02735476205701358,0.009766238256107397,-0.0060236843181931485,0.01339567783500811
660,0.016686442105294175,0.005311881044959625,0.03665145314775444,0.009934523852408863,-0.01331632602477318,0.014050815971403886
661,0.018601332913968406,0.0055341459317427314,0.040025477818365386,0.008784000510212043,-0.012692404079718552,0.014441552109270195
662,0.021316431005130473,0.006869854967622185,0.03798916049995997,0.01104208387272801,-0.009979135930967525,0.014206626564140385
663,0.019303071000733776,0.008631466999978367,0.035351903757583875,0.014924038930720095,-0.011346527645508789,0.01472060096418687
664,0.01660848198218299,0.009439055413368817,0.03598055874897194,0.018772607945465696,-0.004054441726445652,0.018266436422371593
665,0.011351349669728531,0.009251449488732027,0.035325395394083206,0.018642850661425167,-0.017975053066457507,0.023929294255249877
666,0.015329699767492221,0.01168257711912568,0.02862585939863095,0.016999746799836762,-0.0059914731691319304,0.026004202643541485
667,0.026030879382139226,0.017249829638335323,0.028646793472854964,0.023284395572713123,-0.011349698706926807,0.024269990460004418
668,0.02934863638135923,0.013685463669722902,0.039329454341284896,0.027640809357660417,0.000640568617306077,0.014247974287737185
669,0.027333564889407982,0.01519494167918656,0.04532824691856841,0.023122721477405694,-0.007395610900230847,0.014193502059704703
670,0.014646318800984806,0.01059462554628187,0.04132715702724724,0.01770014195981099,-0.008728048170133484,0.014032843233240085
671,0.012646056618530743,0.012510203512225765,0.020691527324470445,0.019748172582067517,-0.007327457210135414,0.011574158337470148
672,0.015300678716558306,0.015299775352099953,0.023320733603173757,0.022645413131568724,-0.008674851758141205,0.010334298222318902
673,0.014710846695155278,0.01634156145901058,0.028705219072566217,0.023444312886931315,-0.012001100867602985,0.010544405455687467
674,0.020021187868249468,0.015349140321254609,0.04132366125661454,0.011251011247096983,-0.015316161517591551,0.008708938318870525
675,0.022047917486990184,0.015589989669953236,0.03198895966610641,0.014866815357058553,-0.00797212626798156,0.015545726850058133
676,0.025996478603312452,0.010660819230962309,0.029994515232761653,0.013281279112468894,-0.009360196437728622,0.01795257225120295
677,0.01464710435878807,0.01656658077463681,0.027326649319196643,0.01027774596413986,-0.01065718695983636,0.01691320543875041
678,0.008670357332901708,0.0105607142574365,0.02860606705460324,0.011032193033990419,-0.008736825886627329,0.01880816864617394
679,0.006655340469967961,0.01113248278241368,0.030686512386018782,0.01306619154808374,-0.014012446032939678,0.026909310863782898
680,0.011320676169946786,0.00860963672284533,0.02732592029543473,0.021430092502431424,-0.0013577855732002494,0.03311487671214206
681,0.013958311431539224,0.011248562104751992,0.03332742135415616,0.02487029104698087,-0.0073061727203830055,0.03287218724673529
682,0.0173198271563751,0.012237966373139805,0.028013162908435012,0.024467930843004013,0.0006237140930355665,0.023835109150876145
683,0.021291949876259864,0.011202299849414805,0.03259827448621172,0.0172597554837708,-0.009312016452878389,0.016611719047192202
684,0.01598935501608248,0.015290366230296434,0.028647073861026932,0.009789034636955496,-0.007372177547475654,0.014063109008967617
685,0.012646656058461174,0.013643946602424056,0.02399148445695409,0.010302969703078873,-0.003283426673223168,0.009424066644222502
686,0.007417929952593101,0.012921268069740768,0.022669156155047145,0.010239648458149755,-0.000708509585749077,0.008828593906070771
687,0.008670478599405234,0.009500510718276822,0.02471402539795046,0.011033786036850127,-0.005322629742484666,0.010776871466677166
688,0.01207318717363834,0.01219907749687748,0.024035593956165616,0.012795329968081906,-0.009363479059221098,0.011010863570394614
689,0.014728993714673224,0.01027218442537088,0.022040734485643032,0.012671807504247646,-0.010648662127757948,0.00938473826693122
690,0.011326155807617248,0.012386992060167653,0.020666051257661307,0.011681574741102107,-0.002038300960578534,0.011795946454851927
691,0.009397736197469206,0.010330591559779482,0.024661234784087827,0.006577834073563265,-0.0006642980632800091,0.012298445442971827
692,0.007979299101227898,0.012207126903894578,0.021955679586960455,0.009340174156584688,-0.001999333531978277,0.015893288291901425
693,0.007316160639872364,0.01382714304311216,0.02466515110787546,0.011684532009514399,-0.01199846264824933,0.01914765692582571
694,0.005290186392398178,0.013118944416630942,0.013282557199842619,0.023797684813809783,-0.005332285859664399,0.023532473470363267
695,0.009950558727106906,0.015576805853472686,0.02403178257765545,0.03145195186155513,-0.005371540247938399,0.021442135815859676
696,0.012052313578657929,0.012723480474511295,0.02599748377778355,0.033481875301060955,-0.003291532667956466,0.016322884341778605
697,0.014686164761499086,0.012176054033203626,0.038728003590778375,0.019529968670777345,-0.008711549358684437,0.010365555586810616
698,0.010016045773888682,0.00856170819239293,0.02401844270545279,0.02050806586033257,-0.008679023102281084,0.011726685413824217
699,0.01068944277193169,0.00624513187660959,0.011999793185233152,0.013684630788100583,-0.004023806315776784,0.0122482267766226
700,0.011306593349407857,0.006689865903453551,0.010021708506622977,0.01058656439312012,-0.00537779046511394,0.012736801309038459
701,0.010658984502999699,0.00925185778473316,0.018672404491045385,0.010351070435286505,-0.006711348008562255,0.012113170096160095
702,0.012689409685247363,0.010428356369086211,0.0213525995550472,0.009171308678620121,-0.008017869869145737,0.00833749845974412
703,0.012027712407681128,0.014911447779207193,0.023351765728596634,0.010656163276947078,-0.0073728248978296145,0.007391363081084691
704,0.006685552353505525,0.01859425472247584,0.017381596577093563,0.013077595244464887,-0.010670972283494734,0.008715500324714551
705,0.006635228882477226,0.01858605299779082,0.020728585692901643,0.01260025897714655,-0.017401335535356076,0.008894934338047384
706,0.009948648276901676,0.019528293187888554,0.014718837028190688,0.011674791871538673,-0.014606017460094625,0.012916673335679751
707,0.012001196409360678,0.01728702784131,0.019362722357032333,0.009719053068531863,-0.01794027408533836,0.021069245632042696
708,0.009336550301946602,0.017496380078303665,0.012658732877023285,0.011728586817274927,-0.007313413132961185,0.024236623856439383
709,0.010019437016816745,0.016101641324469798,0.019339727782713503,0.015615316207100402,-0.005984299817970823,0.024934431870740747
710,0.013231932362145146,0.015070882602712226,0.02333417511466962,0.018127298433204698,-0.004008513524962147,0.021301125166965952
711,0.013318425518130884,0.015885577852873718,0.02597013253112679,0.01423808459360475,-0.009394799235544083,0.018982021884104378
712,0.002642381004246559,0.013935712458192681,0.020025299636079588,0.013876901685643457,-0.014010919707511515,0.016179470094343937
713,-4.440361694061634e-05,0.010843008397029754,0.012641244255433412,0.009082137982572555,-0.00802831949767598,0.008641337153220699
714,0.0026745603002984405,0.010117907046259233,0.018002749892980067,0.012460777101101026,-0.008647778896761582,0.010462010642875717
715,0.011314209432814004,0.011158907813612494,0.018678013047148407,0.011242119206966633,-0.007377506083401211,0.011713767405189462
716,0.01660238428663131,0.0077187830717310125,0.02064512527104435,0.010537821721643971,-0.008634124642186443,0.011903598981300433
717,0.017374470048255288,0.0068923500099326495,0.014625178980351011,0.00825222255363442,-0.006025955208090044,0.00886487726268483
718,0.009963401524452927,0.010089019478250647,0.01803386818741299,0.008641703447820814,-0.007358469988928148,0.009611306740219648
719,0.006711918166910746,0.009036367626070433,0.01932866600462581,0.008501728946046814,-0.007338673433203058,0.011185437220795959
720,0.005986121588843024,0.010326060407557316,0.018023736403289175,0.013271265185725127,-0.005336015496170463,0.014753247030730129
721,0.00932844991340821,0.009816253195000403,0.014013753108596398,0.014171104002753218,-0.00998533609675156,0.01955593733216318
722,0.007976403321538225,0.00968089725733487,0.007958011921286591,0.015675397625270104,-0.005282682017306747,0.021614218320661262
723,0.012028692179743982,0.01147431053205992,0.0172827991825875,0.01884115221035182,-0.0020608712984140185,0.022329675709990844
724,0.011973442750497618,0.010839021065458544,0.02266420279735354,0.0182059565856204,-0.0012906989982760146,0.02003709336272329
725,0.008004974332650816,0.014569051492294833,0.02661552071952471,0.012164915057672572,-0.002687026469198457,0.020475974185940736
726,-0.0013277749729310594,0.00949219557640577,0.016659106204571936,0.013291967811706521,-0.009291407265605298,0.018127926429734775
727,-0.0020321614322359326,0.011912607376587163,0.007950653015996166,0.011267171232543104,-0.004650116128559817,0.013854246579479878
728,0.005336499538986207,0.013926438253968778,0.012660092034064986,0.015271423213214423,-0.005355558271070474,0.011810421469916144
729,0.007282267314957376,0.013387726787595632,0.01733795240587682,0.01387174284060647,-0.005991560240646449,0.012282273340111349
730,0.012028735953995149,0.01321750568453173,0.020714926723193035,0.011635004138604996,0.0013466089084201425,0.015344733135849364
731,0.00798507276711201,0.01345461867481631,0.008044839131677294,0.014561719609500928,0.002644807526199077,0.014343425127816669
732,0.0006501296807823234,0.01941771330493038,0.01006591844462057,0.01642017853530715,0.002016898670829059,0.011998176635452797
733,-0.007297734377162446,0.01457166781050193,0.010688172595123807,0.01630771415919962,-0.005361188915714174,0.00828071720209039
734,-2.509574017425705e-05,0.019577024931219593,0.01597141832847287,0.011224662303796032,-0.006003879513309796,0.0077999608067243235
735,0.002737197723505889,0.016434117110488002,0.013329962407794339,0.009784536766742255,-0.011994260970003815,0.014637487431532824
736,0.003999113134198091,0.015512997816970247,0.01067511562610159,0.014538924255690039,-0.003968625611330617,0.019850520410580753
737,0.0020357311642241363,0.013783290694866925,0.013364033551386288,0.019456998547348357,-0.0020340378888218324,0.021076793608010305
738,0.009314745950370492,0.008399855860181722,0.01732939737700078,0.021879431192111474,0.0006708235893419144,0.017440956631383654
739,0.009976446830363967,0.00791623112938762,0.02004372205237243,0.017089150044031425,-0.002016690731312492,0.020315498307012323
740,0.004646973098576301,0.008569552875645842,0.015997057457843286,0.01618016695728504,-0.007303185525798643,0.018390465967852997
741,0.0033442382605375375,0.008441159961303403,0.006651580589252012,0.011596752252689904,-0.0006842251866383642,0.01717753438070883
742,0.004005069989306018,0.00827639466043002,0.00795500560782598,0.014293292719138926,-0.007954656490663304,0.010730347391726146
743,0.008669509645394684,0.00668266937824531,0.012654047479705012,0.013190803613895602,-0.005324062025056894,0.011284117549467225
744,0.011335416292102836,0.00639597386536448,0.018690543684919805,0.010419012321729138,-0.00536480696541867,0.01332907253768336
745,0.011933439568904572,0.007645427963807536,0.014718292128373165,0.010413961538849595,-1.0424881441129657e-05,0.012985415581155183
746,0.006003977900823025,0.010305742804285365,0.016027241746503496,0.011054599661488071,-0.005355998064654299,0.015764242813761632
747,0.002641311518281818,0.008693561851588892,0.016703324465685166,0.01104596663267378,-0.007970338770012944,0.014497726934058985
748,0.004005109202683374,0.010587121107816103,0.020029211510160756,0.008749315028646489,-0.008000170584397823,0.013635487097518592
749,0.007999441577749613,0.013085779535306239,0.012677733652579435,0.01166795620647594,-0.004660703068307172,0.01813638781472565
750,0.005293433851242623,0.014792260305667845,0.013319814533794022,0.011715829415459587,-0.007339979795776233,0.021683789725747585
751,-0.0007012692765252219,0.014076869841266883,0.0019840729867180067,0.018838376774068594,-0.007979591191206436,0.02156692344564908
752,0.0052954107728379555,0.017318301492229543,0.011972218776208066,0.023317482881837995,-0.0033554499107649517,0.01741291354232925
753,0.0073236809572603204,0.01649110900576098,0.009353023179419816,0.022606588771554973,-0.004599748861817677,0.014916961491991511
754,0.00735367345565013,0.017203868311360847,0.021340671777748486,0.012752980611172103,-0.009342335649699196,0.015392477940012689
755,0.0020199748621988925,0.012598927767154532,0.009356478036509156,0.015075629747146243,-0.009302763858780202,0.017916612835147262
756,-0.0006894180328405201,0.01421138578309578,0.00595556487724445,0.015504108491379431,-0.005294242098907853,0.013342827900720767
757,0.0046715836944882655,0.01341098998777537,0.007328054033942561,0.015195300619688221,-0.006660466461398107,0.014186155813089008
758,0.0020123664833787656,0.011560505561340896,0.010635711743765357,0.010462274233625772,-0.008682536372017687,0.009267467067286584
759,0.007980837619410057,0.01031552091117649,0.01129113333584031,0.008381906499039605,-0.005990364731996608,0.010465869091714052
760,0.007322734026366577,0.009761330820086704,0.003312845614870628,0.006391602536301125,-0.004023530587687269,0.009981831770062852
761,0.005995790745764687,0.010378559527382421,0.007337746050910513,0.012613722152490174,-0.0086793392190492,0.009894998208471374
762,0.0012734690026497818,0.009629875389566217,0.010646375702296032,0.014123035855446255,-0.00935086670605742,0.00971401919470121
763,0.003994190492876921,0.011331775323799427,0.012010342018978496,0.013937544221075016,-0.005329372592034957,0.014935220044768131
764,0.008635619731648898,0.01099585012644879,0.007283564065746836,0.014711908853739337,-0.00402979702785811,0.01989301814864457
765,0.006692442135002929,0.011538868473072584,0.0066450385343279125,0.015409977588713049,-0.005995368478207193,0.02250086582491254
766,0.0026477559731381945,0.011146979107513595,0.0006495396800206924,0.021590606941250617,-0.006029797969726429,0.020064525129421102
767,0.006675480326449091,0.01802712463706513,0.01201661737137556,0.027057649779234933,-0.0013700041345751147,0.01693631299868888
768,0.010686043639244101,0.01695462385636406,0.012039230619863738,0.02599598812799271,-0.0033333987531604667,0.0160739969531117
769,0.005961735908143422,0.01909211353171327,0.022046857223514994,0.01642975578446725,-0.004688403780608874,0.014363019404069038
770,0.00139754709595251,0.012088351802506864,0.004014421442702289,0.017552349143334364,-0.007334633483074318,0.012790223440856037
771,0.0006493746138689538,0.010947094134236666,0.0033994414946901317,0.017418379990775494,-0.004075156308151643,0.00821009265286224
772,0.004692256462141178,0.00830922817591283,0.003307897794158206,0.014549325290629748,-0.004658306152472676,0.012159266926542924
773,0.008017880644977281,0.01126372078364263,0.011374707846878836,0.006676652465716126,-0.006695107469230678,0.012094905565966452
774,0.011348993047803976,0.011449005617005237,0.009301088894581862,0.008337128260091217,-0.003990548040779669,0.013856622624486071
775,0.01330899934554286,0.010643071884571155,0.007995273200165456,0.008096469057501277,-0.006645149507293407,0.011679914646921068
776,0.004638116670401105,0.011688744911247925,0.010639699933975837,0.009130195838187204,-0.005265351468809725,0.0111026848154574
777,0.0013208720410415504,0.010314170512926171,0.015379173388717879,0.008923801040601073,-0.00866683806616121,0.009495090089570382
778,0.005295623916945554,0.013719111558312954,0.013340937707479135,0.009919989494627874,0.0006905176356129632,0.012648210778882056
779,0.0033721921592046,0.018644362277214516,0.013415250393543797,0.013428277216878115,-0.005318227888033924,0.019199783389050918
780,-0.0006748382357035738,0.01934399274491089,0.007322916123075971,0.013043693758030708,-0.0013158363012692365,0.019751838905155864
781,-0.0013509450046115964,0.019727900036960972,0.006036590332607772,0.01819162060011371,-0.0046066582845054466,0.019716943751829523
782,0.0032608957134036545,0.019916738469782272,0.007967761143490059,0.017259041153700066,0.0013555053199678499,0.01769650375515505
783,0.006024920810624253,0.018312461085516905,0.016004185184021757,0.018585752731045093,-0.0059672838475403585,0.020179312322424925
784,0.0013155844170093798,0.015740226312127237,0.015345804856226877,0.014504471197634363,-0.006018437671726832,0.019111917921442432
785,0.003998511621658927,0.011305222089662764,0.004014332424288067,0.017825868566821786,-0.001998233642155786,0.01596875528987293
786,0.008615987995434575,0.010526862737306405,-0.003939987255084356,0.010347702601588269,0.001981346603202984,0.01418175008973815
787,0.00534370685766029,0.012245406286000522,0.006679955884131778,0.019186079615987818,-0.001976200521107928,0.016039012436696927
788,0.005292775414455389,0.010231491786882806,0.013358785552157583,0.014781560915196352,-0.005340353704063878,0.015494260614472302
789,0.005406143211912044,0.010627624028850468,0.015318936835868264,0.011662636483286202,-0.0006181234513240885,0.014164411573739762
790,0.0073071626520396175,0.008202486824301912,0.007354198973081012,0.005947524763336185,-0.0019721438605485183,0.011437061577428317
791,0.0033461129430897387,0.012182283291504595,0.007314094015514833,0.0051091092605349085,-0.004659334467078598,0.011946042692767623
792,0.0027037747217447147,0.01204180171070217,0.0073317607570474435,0.007143457619582565,-0.01000844652119084,0.006968691680602482
793,0.0093130485283673,0.01681622383023911,0.011336447297206799,0.009185700641680533,-0.0026384315786420753,0.011838637205778763
794,0.007313413397509498,0.017240225741786557,0.013395211844949217,0.013609003862291896,-0.008691439543494045,0.022019389616249538
795,0.0005891946484376886,0.017789078132177442,0.010686737204338067,0.018581645093597672,-0.008684579568957159,0.02373956492538784
796,-0.004697178606214494,0.015534925809255829,0.0006944844557003703,0.025686357901114187,-0.008609880258119066,0.024553844717426176
797,0.002655083186836949,0.01645356256950542,0.0014006228052088356,0.023916785524225628,-0.004044452346675606,0.019407698623113444
798,0.006592434906402919,0.014723897905294018,0.006632988243906484,0.023021374814668354,-0.0020244857744946194,0.01909848313193839
799,0.004663169086448735,0.010240783035356351,0.015340557835619061,0.01187972034261215,-0.009405024694553659,0.015124828424884142
800,0.0032503279379810656,0.011409482321696723,0.006011057360367883,0.017049455618885184,-0.003292037450250829,0.012080585300946009
801,-1.4334320347946262e-05,0.012485603258162,0.0013153786512748414,0.014381561816936403,-0.007296763740899621,0.010146679770248085
802,0.003993736295055271,0.012851427992178022,0.002717306803992709,0.014314966311424288,-0.0066495173242964575,0.01167684811175517
803,0.0013276070889565042,0.010443170902486395,0.006679982771832395,0.011113359300133982,-0.010629460485501504,0.009441917138015456
804,0.00668546789860431,0.005772016859288358,0.008706479613127356,0.010424539977766007,-0.007992325904499928,0.008834296123642504
805,0.0047338222059415316,0.006690174216803148,0.007335066651045763,0.007567137536322324,-0.006035168457654404,0.0064984562559040095
806,0.004677141179728336,0.005964299628357137,0.013314129362405875,0.006810742080762395,-0.005986191454959288,0.005661218276021796
807,0.0006907246410252741,0.006522929712512679,0.012656498473187453,0.008810034575713105,-0.00798020626050738,0.006376707794699804
808,0.006063381916842219,0.011284806264180384,0.009391612535200562,0.00953485344567224,-0.0046725929812731545,0.009411557363941
809,0.006018050399871831,0.011247155635847593,0.002713775298222048,0.008584568140368936,-0.005966838692823064,0.017306806190075137
810,0.008694856446980113,0.010578008135673615,0.006682328257062857,0.011624533594298596,-0.005997742171303357,0.021505173315330094
811,0.0007331628369905801,0.008656851489953418,-0.0033244494649641875,0.022670498744783076,-0.004677013032364065,0.02329655763309824
812,0.011352048999213027,0.018681767905886812,0.008684652207419223,0.029100478878035862,0.0020154274616249073,0.018219525549356953
813,0.008630366600636059,0.020218600092872123,0.004691575263908874,0.027884650658132767,0.0006676031137203898,0.01659822726750447
814,0.007360623821620372,0.01990034334832995,0.01801171041702121,0.013733198469967725,-0.006670162519279542,0.01605936548707522
815,-0.004716742615843743,0.0053969902360062215,0.0033134490142422775,0.012464177431644255,-0.010023639014914366,0.015139161429856014
816,-0.0013213180285194847,0.006990384934485744,-0.0006366714287388786,0.012935082724373608,-0.0027599456814770733,0.018576011945167368
817,3.26461968298445e-05,0.007132078814062683,0.003933671289691858,0.01943693632003415,-0.004695258859316308,0.020397438059553775
818,0.007359724482742539,0.013689758417448667,0.00599542272219458,0.0185967900494066,-0.004664451038405903,0.019508284500935426
819,0.009321589715447148,0.015955893802418825,0.009980839469298026,0.016491081526201736,-0.006659572113821962,0.013911934320727591
820,0.008681766491587422,0.016053481224202037,0.0013141981490961635,0.009785181172243536,-0.0039939278986301395,0.009382085491615701
821,0.0060208299556077875,0.012289962381694386,-4.08309140085035e-05,0.009279868302870689,-0.008008328641322641,0.010265731930046224
822,0.003982719871248773,0.010814081503956274,0.0033464581259290815,0.014154608977684002,-0.013319870719359106,0.009843299194671497
823,0.006026344206128294,0.00918874444850483,0.011273689000806657,0.01668049438498735,-0.008646971436985633,0.013584330006616225
824,0.013282812325235632,0.01789852545436146,0.009348881653530696,0.024070539232716903,-0.0025990995936221845,0.017815177166373975
825,-0.008015638560307339,0.03967566353195301,0.0013221820212227097,0.024294058649090036,-0.012007599660160441,0.028499515743073214
826,-0.018043100262053434,0.04028113802458199,-0.011328205914388467,0.018882068168590387,-0.009298066855780595,0.03035027431410907
827,-0.029983603768981914,0.025727802140842006,0.0040090466234761635,0.025467753954239693,-0.014016631452117878,0.02893106621100106
828,8.541461219202517e-06,0.027260576689385273,0.008649791319224987,0.027227492208643945,-0.009281033059202822,0.028920967101111687
829,0.026042517248537556,0.024516059024938332,0.011298291383218655,0.02520088339472953,-0.008703412794267458,0.030374400611732286
830,0.004031140468494404,0.061645852957715366,-0.0019843236029826686,0.018661919337872694,-0.015289384865696061,0.034767499887640683
831,-0.05861011501949405,0.09308914326222661,-0.019300565209121587,0.055143906842438715,0.01394138922515132,0.06317598527143803
832,-0.09932191565730544,0.0992430947703806,0.02465160961055137,0.12031833252603166,-0.009945566151721376,0.09332705674037094
833,0.018688418663476977,0.21122773926732527,0.028681309292484393,0.1196527366629421,-0.00667781812285263,0.09269398702317867
834,0.1260072084347282,0.17277207190959637,0.06331777541350148,0.09749418924592557,0.02068205624104142,0.11023926074771072
835,0.16803125887395784,0.1035258705515054,0.01869153311092835,0.050410006658910586,0.06132840639540841,0.07432857836881394
836,0.05597132099915703,0.0939937060452288,-0.013987684231089582,0.07459585628110714,0.028010828561804865,0.13268007367613938
837,-0.039321005190446595,0.07765024049286283,-0.031951391827284015,0.061310218994701765,-0.024018525725777496,0.11648806502227042
838,-0.09933995623219437,0.046750875010144,-0.007371569114800339,0.071948834552301,-0.06671091594050652,0.09921819332369218
839,-0.057342543173170224,0.10068719267624349,0.03735096664831661,0.037999949429163925,-0.022645460123742685,0.06796256705248085
840,0.022032323713596935,0.1124313119345978,0.03596614524523541,0.030184162823072767,-0.01267896025085628,0.04599878827708031
841,0.07728797930575594,0.045688752347464244,0.006639612484082974,0.028347433293042963,0.010694763926688578,0.02337854662485322
842,0.054063958135531325,0.05409792114274347,0.005998605877239255,0.029180895305581996,0.0006782249999697602,0.0357423165155093
843,-0.012040561036005768,0.07073338929530709,0.04067322751378815,0.06083305158154998,-0.023316157837143955,0.05805686118401724
844,-0.0814585574385905,0.1204776386312625,0.07258634110603608,0.08803939497168818,-0.006099860075984045,0.08429155386457882
845,-0.05628543001855913,0.14746106191621547,-0.0466320700209477,0.2137297716470166,-0.020912216672601402,0.10894829619735842
846,-0.04159747337073508,0.14030304937084864,-0.05060093387003043,0.21344695660332716,0.013733666884392088,0.10033300938360899
847,-0.013421337832112577,0.09106559802841249,-0.08391778915541984,0.18396344522334449,-0.018102048007491767,0.08655393417669889
848,0.0013219195558743125,0.10032910124112565,0.035319484656216676,0.06973686005004999,0.0039845586282207905,0.04328407146232207
849,0.04531290500628141,0.11002037867670543,0.008663694589520406,0.040525899884335886,-0.004009123690498976,0.03481068472163602
850,0.05597152774560302,0.09007343640292137,0.019975505822573316,0.026343646434510287,0.004644105412150598,0.02320745386612111
851,0.00606129897103713,0.07645873119334788,-0.005334244280661125,0.03189483325046163,0.0033059931555326437,0.02132642951730333
852,-0.02130586904809596,0.031458327083760604,-0.004022045262532653,0.031675747316240656,-0.013353949714451679,0.017624167797741425
853,-0.010670271152794387,0.02858220059168978,0.0007001293150386785,0.03443741220203065,-0.010041305543689897,0.01978427224261379
854,-0.003279843132456928,0.028451406672136133,0.008049648246283698,0.02701913529936112,-0.01066827115854364,0.02031139120647912
855,-0.003950185124692169,0.027903236332367038,-0.0006290475887974628,0.027227871376763864,-0.010697324785326274,0.028261380020809773
856,0.009335271653368143,0.02451008407163701,-0.003958466726115442,0.024625498305719657,-0.009302469978977398,0.029669881607292295
857,0.024709015848161382,0.02717447603279938,3.191296391961499e-05,0.020788714843071716,-0.005310858805081767,0.029257817038204428
858,0.039350022418712695,0.028162408226948796,0.005345097986963294,0.01608102739628433,-0.004678410408009552,0.03181846326292152
859,0.02072203606778674,0.04516294649652972,0.00938356203896595,0.019702220711378046,-0.006642725519302067,0.032883086630899595
860,0.001983018019200941,0.04457270865657966,0.008692625181689955,0.023438968920684106,-0.0027015692766781322,0.03763486991228779
861,-0.016005437959779708,0.028170427173476936,0.0020128415163276256,0.02396024637762198,-0.0006895502586722563,0.029247254531643316
862,-0.0013224270091589617,0.02395179893806642,-0.0033285926650665812,0.02207525626060901,0.005331987277898096,0.027470491851921453
863,0.009270628269041077,0.02072866404074258,0.010642778576520661,0.027570940788487246,-0.00796340164714277,0.021848197032698677
864,0.010714437179592352,0.01631526681567001,0.008675063452115033,0.029487878211149336,-0.006038879402818542,0.020052000320873453
865,0.024708081486983727,0.025335017902796797,-0.003394753511049675,0.04530223027801426,-0.0013084284916878854,0.02405546010906706
866,0.018625087916115588,0.032216842353727126,0.01453888985630264,0.1146138733055543,0.01522297718176886,0.04555243714773361
867,0.0032296970412906477,0.05734869043891933,-0.002742924510724477,0.12728375956714091,0.0066696721208624014,0.09607783265452503
868,-0.03480387511282788,0.05879410759967782,-0.004521448664593963,0.12421661217256694,0.002554932923953693,0.09711179368399375
869,-0.02496028176615018,0.07220662012625848,-0.03006271301377994,0.051939129351448246,-0.05406342721857809,0.10909592845318503
870,-0.009960314122469711,0.0654813045605863,0.0033823235697900828,0.03160492101162092,0.0026503940548404797,0.11969056816489786
871,0.019973234869928736,0.043459127370259996,0.009988557844649255,0.02677112554261881,-0.012675909572121308,0.11988471190132678
872,0.02065640559530751,0.029261618031351678,0.005341299588721682,0.024958040570256267,0.045303254435568624,0.07567862856617175
873,0.019984407302871987,0.0313548741740032,-0.008002652115188837,0.015518365902913544,-0.00867159497066247,0.03975560510978865
874,-0.01870253725670557,0.059053806522921595,0.0073296898125734655,0.02733628262233443,-0.006016300417198567,0.033999873230281794
875,-0.029317520224941905,0.05317032855230065,0.013370032317161272,0.03160955966953613,-0.019335268253993905,0.023001340512658
876,-0.02468712250913642,0.05371377996813523,0.009325096908446058,0.039710913718011706,-0.008637317944026387,0.022247060539497016
877,0.0013461615706041924,0.02631007152735138,0.011950146401482547,0.03934197275168697,-0.0006333709566479945,0.019728725630419205
878,0.015367491075326763,0.03021888641286217,0.003994112060649748,0.04067541080381585,-0.009317786717098849,0.022149265507765706
879,0.012676352653014535,0.029709394513302467,0.02127192137300209,0.03203946088128378,-0.006684859925643381,0.029408192821587163
880,-0.00873348016741782,0.05442789245607295,0.0007407099245751637,0.031081671683869647,-0.016698135537541483,0.04566337883524252
881,-0.03666845256097413,0.0391543447790018,0.0060006706572441615,0.04217316067590499,-0.012660794497008663,0.04633881687071212
882,-0.04469198655330282,0.03515006184952766,-0.0212985073537451,0.06441588246127253,-0.014014801346631816,0.04366367984627417
883,-0.0007051238930869693,0.06416412454904134,0.012737418833603565,0.14454502699418043,-0.0039677618933628145,0.0748121244744717
884,0.04404923711728756,0.07763234620169289,-0.01994713058853193,0.15701720621366272,0.005359884743303281,0.08042063660723686
885,0.05061253422322635,0.07058347250315114,0.03011209973880576,0.15804306382014,-0.011368428818703195,0.08638840258079743
886,-0.0039549449479505585,0.09818549606737179,0.00868969727318936,0.09809381404421036,-0.006706302055723929,0.05179405930914218
887,-0.007345377407755821,0.08989241461432493,0.033973215286159805,0.058680785604699186,-0.013970528427105161,0.039003510285106145
888,0.013274857695606141,0.09830398063923106,-0.003918352452880495,0.026235998590485924,0.012655227166407459,0.027993254133667177
889,0.04005110640872132,0.05954010160287427,-0.011350956617424069,0.011659908417930529,-0.007963191227298771,0.04147104608360347
890,-0.011370697031410802,0.06141004308036658,-0.009990932848498323,0.010429942203141382,-0.0026869779091694404,0.039095442380065244
891,-0.049260211835791774,0.02554656090800423,0.0007028296804340482,0.011972745103010341,-0.022651646878861387,0.02625688025185274
892,-0.02800671131121887,0.05104134840681226,0.0026275007356007297,0.011916236136422221,-0.008660138448279198,0.01992980949895262
893,0.018009096935864683,0.05522932762411912,-0.0013020437401706727,0.017606184383112403,-0.0020009623970830117,0.030738595344952997
894,0.04271223203180664,0.02900366127090937,-0.007961823636286482,0.02126647026959945,-0.004674300172962866,0.03682352593430933
895,0.024636682849253175,0.03780551828061278,-0.004657760391758514,0.023810888655746466,0.004698806106948631,0.0381545095073851
896,5.343854321608055e-05,0.023784746903283412,0.0013650879313344263,0.020745318633292077,-0.013983669709947934,0.03453120720133624
897,-0.021970831498673026,0.018893655387176342,0.006654869569829271,0.01287968368133077,-0.0053339787630702126,0.02817379970300686
898,-0.02201160655380146,0.02111643620012414,0.0027204070589883357,0.009468929019365873,-0.013330226135426409,0.0207755154085516
899,-0.01865620271506568,0.020974983258237448,-0.0020220985011746317,0.012888411293574105,-0.011391229826517362,0.019354107726096945
900,0.003306037708490486,0.025122449469149655,-0.0025913646799368296,0.012375648157207177,-0.013361091381342298,0.01967709518628824
901,0.01731597037706177,0.017148818610452417,-0.011341000783718058,0.01726343422660082,-0.009325640040455078,0.025016956993983246
902,0.03533006685562184,0.022955377557015013,-0.0006742795730970396,0.021083843874520853,-0.0006760463406451321,0.02059777773396495
903,0.026011772606391197,0.02815324963132361,0.0007067024119997029,0.02238265001146745,0.0014020034104130208,0.016812454232907566
904,0.011270190361600312,0.03631951833809978,0.015352076328023743,0.010003606662768349,-0.008630370146363177,0.011366980055892867
905,-0.012672473333105894,0.014113989506419209,0.005353050252290386,0.01662025027134695,-0.008620598154288546,0.013382113935798448
906,-0.018001418860606484,0.011308850264463226,3.2534046041728566e-05,0.017920914710019397,-0.011303214811359428,0.01695747438495727
907,-0.00932942027187315,0.01466001057383556,0.004050750690157733,0.022182562943531634,-0.009266872999615483,0.016007869013167104
908,-0.003999673008768357,0.016523442528768483,0.007327079776943095,0.01857514738731065,-0.007986382884097235,0.015482211497805569
909,0.011332974693324822,0.01577790813339856,0.008683533728209186,0.017336941987422524,-0.005977947032931446,0.013083702607696361
910,0.014611225568972581,0.014347670180796955,-0.006672615764342683,0.011334489034524378,2.1986665860893156e-05,0.01114618309757012
911,0.015324587891159955,0.01065945879997038,-0.002649092533834003,0.013638612935725491,-0.00998918044962994,0.016855299540587176
912,-0.0006962066313582866,0.016827793420778923,-0.0027289271713165407,0.011798836888568332,-0.007297522134982356,0.01633821607347622
913,-0.0006145671628338031,0.017429018411443883,0.008038607607626,0.008965975544074049,-0.010030000176815022,0.014846499025801624
914,-0.006695496411688502,0.017854840641781246,0.002587980645694022,0.013740838274116653,-0.00930175572849038,0.015526560825907478
915,-0.0026041140470532487,0.017879012140974614,0.002675663454268224,0.013650692970215546,-0.010670798035289232,0.016424799195671965
916,0.0033472631239789964,0.024391488988574413,-0.0033575721431661327,0.010491870884398406,-0.011272715308294457,0.015646816741684805
917,0.011362829765586299,0.021952390414892914,-0.001311939680052976,0.005733114956921866,-0.004631632620699594,0.011274605988409058
918,0.009330728457467024,0.021313485954569632,0.0020257321079077185,0.007203547661553053,-0.0059576824503423725,0.009856034436939984
919,-0.0032971229440646606,0.015685903567613298,0.0053696226731004834,0.012402791003956113,-0.0053163846101747835,0.010658086495198072
920,-0.00533415457339743,0.013930756744128933,0.0020299850708282254,0.01527309162934753,-0.004655066871604802,0.011842868387300665
921,0.003349681376104659,0.01342412541278584,0.0060363310564901,0.019167713082522353,0.002007760518027033,0.01930838320768721
922,-0.0012889786277896081,0.020708671436090995,0.0066964240235279915,0.026290345702437084,0.002008742260684889,0.022515296353728193
923,-0.05269689139912099,0.07648078511638642,-0.038693867727644035,0.09725293435023502,0.02868462744545743,0.04451782476277208
924,-0.1506990907970515,0.12543588103476933,-0.10337188667853758,0.24061443422516274,-0.0626802236396494,0.15646323629920308
925,-0.10795776380106234,0.17449125376646912,0.003981605681293323,0.3310542751954371,-0.03588610895065034,0.1721760763861833
926,0.001967632903478515,0.2160732658335922,0.060562959807882746,0.31011124054459815,-0.04329933543753115,0.16881323891773767
927,0.23798888612275135,0.14494895957466372,0.14530473865249685,0.15576564033656087,0.048048015662356884,0.05406539272630209
928,0.32332966050308803,0.11570070157452651,0.031994645043523375,0.05709429565215601,0.03865650511336086,0.04493135821506464
929,0.2855219720621756,0.19610032627207766,0.06255415150640152,0.0797266273019366,0.019878475004772276,0.0450862213606382
930,0.02565553139944632,0.3448145337463797,0.00989225573804225,0.11080642706307019,-0.023346437075535537,0.1312700857932432
931,-0.20702330769767877,0.29390391805222965,-0.07143229353806843,0.20106291779029556,-0.04472201291338663,0.24618560652846558
932,-0.27245148215234427,0.32757411927524754,-0.07570684891218428,0.21923648720874392,-0.025847588327893394,0.26509910512573254
933,-0.17280689716510503,0.39433480550302424,0.00012454485878076553,0.23912569479110224,-0.013709021347341995,0.26903560248818464
934,-0.0681794304466572,0.3849668470795198,0.11098426144505225,0.14508862891664692,0.020377910419145825,0.20276207284139153
935,0.03614742253401455,0.35495212147421545,-0.063217610007371,0.27862558888076083,0.001831950561074878,0.22504281451054
936,0.04191958887916794,0.2507908461713396,-0.06934263570389101,0.2825223218655496,0.02397714307154266,0.19348397063847586
937,0.023922365683037197,0.2273636810859903,-0.13738253790914415,0.25264763006866037,-0.006014509140870064,0.16562738995545995
938,-0.10272324974564148,0.13879098342181748,-0.008603488347351905,0.15212574289745945,-0.03391823700187116,0.09896618963267513
939,-0.10173885588017063,0.21712377486551634,-0.04590420370628265,0.20723400938348596,0.08675258168038476,0.2097921245480091
