time,ax,ay,az,atotal
0.000,0.40,-0.12,2.72,2.75
0.010,0.38,-0.37,1.64,1.72
0.020,0.07,-0.36,0.28,0.47
0.030,-0.40,-0.18,-0.71,0.83
0.040,-0.46,0.15,-1.13,1.23
0.050,-0.22,0.45,-1.15,1.25
0.060,-0.38,0.58,-0.90,1.13
0.070,-0.41,0.40,-0.79,0.98
0.080,-0.08,0.17,-1.05,1.07
0.091,0.07,-0.09,-1.61,1.61
0.101,-0.23,-0.38,-1.94,1.99
0.111,-0.65,-0.49,-1.56,1.76
0.121,-0.69,-0.25,-1.06,1.29
0.131,-0.53,0.00,-0.51,0.73
0.141,-0.06,0.06,0.12,0.15
0.151,0.17,-0.00,0.81,0.83
0.161,-0.55,-0.05,1.61,1.70
0.171,-0.94,-0.20,1.27,1.59
0.181,-1.07,-0.03,1.01,1.47
0.191,-1.32,0.24,0.69,1.51
0.201,-1.27,0.40,0.41,1.40
0.212,-1.38,0.37,0.40,1.48
0.222,-0.45,0.32,0.68,0.88
0.232,0.31,0.80,1.14,1.42
0.242,-0.56,0.37,0.88,1.10
0.252,-0.47,-1.03,-0.01,1.13
0.262,-0.45,-2.01,-0.83,2.22
0.272,-0.71,-2.27,-1.12,2.63
0.282,-1.17,-2.11,-1.07,2.64
0.292,-1.57,-1.78,-0.79,2.50
0.302,-1.59,-1.12,-0.35,1.97
0.312,-1.56,-1.04,-0.04,1.88
0.322,-1.88,-1.28,0.01,2.27
0.332,-2.41,-1.41,0.30,2.81
0.342,-2.56,-1.47,1.07,3.14
0.352,-2.06,-1.64,2.58,3.69
0.362,-0.99,-2.06,4.99,5.48
0.373,0.19,-1.95,4.41,4.82
0.383,0.17,-1.43,4.50,4.72
0.393,0.09,-1.49,3.50,3.81
0.403,-0.19,-1.29,2.05,2.43
0.413,-0.58,-0.36,1.44,1.59
0.423,-0.36,0.22,1.74,1.79
0.433,0.38,-0.29,1.93,1.99
0.443,0.61,-0.76,2.15,2.36
0.453,0.72,-0.69,2.29,2.50
0.463,0.65,-0.58,1.94,2.13
0.473,-0.29,-0.59,1.42,1.57
0.483,-1.78,-0.79,0.86,2.13
0.494,-3.19,-0.37,0.99,3.36
0.504,-2.70,-0.13,1.55,3.12
0.513,-0.56,-0.59,1.81,1.98
0.524,0.36,-0.46,1.84,1.93
0.534,0.15,-0.47,1.63,1.70
0.544,-0.01,-0.69,1.45,1.61
0.554,-0.51,-0.80,1.25,1.57
0.564,-1.20,-1.13,1.09,1.98
0.574,-1.69,-1.53,1.41,2.68
0.584,-1.58,-1.65,2.15,3.14
0.594,-0.77,-1.72,2.45,3.09
0.604,-0.33,-1.58,2.00,2.57
0.614,-0.28,-1.76,0.97,2.03
0.624,-0.80,-1.91,0.32,2.10
0.634,-1.73,-2.09,0.34,2.73
0.644,-2.28,-2.35,0.68,3.34
0.655,-1.57,-2.46,1.06,3.10
0.665,-0.31,-2.08,0.69,2.22
0.675,0.37,-1.55,-0.37,1.64
0.685,0.38,-1.21,-1.62,2.05
0.695,0.14,-1.18,-2.93,3.16
0.705,0.19,-1.12,-3.91,4.07
0.715,0.07,-0.88,-4.52,4.61
0.725,-0.34,-0.53,-5.01,5.05
0.735,-0.59,-0.35,-5.50,5.54
0.745,-0.72,-0.41,-5.65,5.71
0.755,-0.52,-0.60,-5.45,5.50
0.765,-0.26,-0.63,-5.10,5.15
0.775,-0.09,-0.69,-4.69,4.75
0.785,0.17,-0.87,-4.07,4.17
0.796,0.39,-1.07,-3.55,3.72
0.806,0.63,-1.15,-3.11,3.37
0.816,0.59,-1.20,-2.66,2.98
0.826,0.26,-1.35,-2.30,2.68
0.836,-0.10,-1.58,-2.22,2.73
0.846,-0.48,-1.67,-2.29,2.87
0.856,-0.76,-1.56,-2.55,3.09
0.866,-0.98,-1.44,-2.85,3.34
0.876,-0.98,-1.28,-2.66,3.11
0.886,-0.92,-1.22,-2.04,2.54
0.896,-0.91,-1.01,-1.33,1.90
0.906,-0.67,-0.95,-0.64,1.32
0.916,-0.43,-1.12,-0.14,1.21
0.926,-0.75,-1.09,0.14,1.33
0.937,-1.36,-1.07,0.35,1.77
0.946,-1.62,-1.27,0.56,2.14
0.957,-1.70,-1.44,0.85,2.38
0.967,-1.63,-1.50,1.21,2.52
0.977,-1.42,-1.53,1.61,2.63
0.987,-1.26,-1.50,2.27,3.00
0.997,-1.08,-1.51,3.07,3.59
1.007,-0.53,-1.44,3.80,4.10
1.017,0.37,-1.26,4.36,4.56
1.027,0.96,-1.15,4.84,5.07
1.037,1.20,-0.93,5.12,5.34
1.047,1.20,-0.48,5.00,5.17
1.057,1.74,0.01,5.17,5.45
1.067,2.20,0.41,4.81,5.31
1.077,1.71,0.48,3.86,4.25
1.087,0.78,0.63,3.26,3.42
1.098,-0.12,0.80,3.12,3.22
1.108,-0.67,0.58,3.28,3.40
1.118,-0.78,0.18,3.85,3.93
1.128,0.64,0.15,4.40,4.45
1.138,2.83,0.75,3.95,4.92
1.148,3.86,1.48,1.94,4.57
1.158,4.14,1.51,0.36,4.42
1.168,2.20,1.29,0.10,2.55
1.178,-0.27,0.77,-0.05,0.82
1.188,-1.41,-0.13,-0.23,1.44
1.198,-1.80,-0.54,0.07,1.88
1.208,-1.03,-0.34,-0.43,1.17
1.218,-0.56,0.24,-1.10,1.26
1.228,-0.86,0.65,-1.78,2.08
1.239,-1.51,0.35,-2.19,2.69
1.249,-1.87,-0.23,-2.33,3.00
1.259,-2.00,-0.90,-2.16,3.08
1.269,-1.83,-1.36,-1.56,2.76
1.279,-0.68,-1.23,-0.92,1.68
1.289,0.29,-0.77,-0.46,0.94
1.299,0.44,-0.41,-0.11,0.61
1.309,0.30,-0.62,0.01,0.69
1.319,-0.07,-1.01,0.04,1.01
1.329,-0.53,-1.25,0.21,1.37
1.339,-0.84,-1.46,0.48,1.76
1.349,-0.57,-1.35,0.62,1.59
1.359,0.10,-0.68,0.49,0.84
1.370,0.15,0.08,0.17,0.24
1.379,-0.14,0.28,-0.32,0.45
1.390,-0.56,-0.01,-0.77,0.95
1.400,-1.03,-0.28,-0.91,1.40
1.410,-1.57,-0.46,-0.63,1.75
1.420,-1.94,-0.43,0.00,1.98
1.430,-2.01,-0.23,0.79,2.18
1.440,-1.81,-0.22,1.41,2.30
1.450,-1.42,-0.19,1.58,2.13
1.460,-0.95,0.05,1.36,1.66
1.470,-0.66,0.14,1.16,1.34
1.480,-0.40,0.05,0.99,1.07
1.490,-0.57,-0.09,0.66,0.87
1.501,-0.84,-0.27,0.20,0.91
1.510,-1.03,-0.37,-0.08,1.10
1.521,-1.23,-0.56,-0.25,1.38
1.530,-1.20,-0.79,-0.35,1.48
1.541,-0.92,-0.81,-0.51,1.33
1.551,-0.49,-0.79,-0.70,1.16
1.561,-0.17,-0.93,-0.75,1.20
1.571,0.00,-0.99,-0.71,1.22
1.581,0.06,-0.92,-0.74,1.18
1.591,0.08,-0.84,-0.75,1.12
1.602,0.03,-0.90,-0.49,1.02
1.611,0.14,-1.00,-0.17,1.02
1.621,0.29,-0.88,0.10,0.93
1.631,0.55,-0.81,0.42,1.07
1.641,1.09,-0.75,0.57,1.44
1.651,1.26,-0.49,0.49,1.44
1.662,0.73,-0.35,0.36,0.88
1.671,0.03,-0.52,0.20,0.56
1.682,-0.55,-0.73,0.02,0.91
1.692,-1.09,-0.66,0.02,1.28
1.702,-1.36,-0.70,-0.02,1.53
1.712,-1.08,-0.65,-0.46,1.34
1.722,-0.82,-0.30,-0.72,1.13
1.732,-0.90,-0.23,-0.76,1.20
1.742,-0.88,-0.43,-0.77,1.25
1.752,-0.94,-0.47,-0.85,1.35
1.762,-1.01,-0.29,-0.99,1.45
1.772,-1.02,-0.09,-1.15,1.53
1.782,-0.62,-0.02,-1.22,1.37
1.792,0.06,0.13,-1.29,1.29
1.803,0.89,0.49,-1.62,1.91
1.812,1.20,0.78,-1.92,2.39
1.823,0.99,0.68,-1.76,2.13
1.833,0.38,0.40,-1.08,1.21
1.843,-0.05,0.34,-0.30,0.45
1.853,-0.04,0.45,0.28,0.53
1.863,0.21,0.68,0.59,0.92
1.873,0.46,0.77,0.70,1.14
1.883,0.45,0.66,0.67,1.04
1.893,0.37,0.71,0.59,0.99
1.903,0.37,0.91,0.62,1.16
1.913,0.41,1.02,0.68,1.29
1.923,0.70,0.99,0.49,1.31
1.933,1.00,1.08,0.10,1.47
1.944,0.95,0.95,-0.74,1.54
1.954,0.46,0.62,-1.72,1.88
1.964,-0.22,0.44,-2.07,2.13
1.974,-0.87,0.27,-1.70,1.93
1.984,-1.32,-0.10,-1.13,1.74
1.994,-1.57,-0.37,-0.53,1.70
2.004,-1.58,-0.37,0.14,1.63
2.014,-1.24,-0.33,0.52,1.39
2.024,-0.62,-0.19,0.50,0.82
2.034,-0.33,0.27,-0.01,0.42
2.044,-0.20,0.67,-0.40,0.81
2.054,-0.07,0.72,-0.31,0.78
2.064,-0.01,0.56,0.10,0.57
2.074,0.06,0.45,0.61,0.76
2.084,0.16,0.36,1.10,1.17
2.094,0.07,0.18,1.50,1.51
2.105,0.08,-0.05,1.85,1.85
2.115,0.11,-0.23,2.22,2.24
2.125,0.27,-0.23,2.27,2.30
2.135,0.73,-0.03,1.70,1.85
2.145,1.11,0.31,1.24,1.69
2.155,1.09,0.26,1.16,1.62
2.165,0.82,-0.19,1.14,1.42
2.175,0.57,-0.75,1.11,1.45
2.185,0.11,-1.26,1.06,1.65
2.195,-0.59,-1.65,0.61,1.85
2.205,-1.31,-2.04,-1.04,2.63
2.215,-1.93,-2.03,-3.35,4.37
2.225,-1.75,-1.46,-4.46,5.01
2.236,-0.57,-0.65,-3.41,3.52
2.246,-0.20,-0.30,-2.25,2.27
2.256,0.13,-0.49,-1.38,1.47
2.266,0.35,-0.64,-0.35,0.80
2.276,0.42,-0.73,0.49,0.97
2.286,0.50,-0.73,1.08,1.40
2.296,0.60,-0.56,1.26,1.50
2.306,0.72,-0.29,1.18,1.42
2.316,0.78,0.05,0.93,1.21
2.326,0.81,0.23,0.48,0.97
2.336,0.79,0.23,0.02,0.83
2.346,0.71,0.18,-0.47,0.86
2.356,0.47,0.07,-0.98,1.09
2.366,0.05,0.14,-1.16,1.17
2.376,-0.15,0.21,-0.86,0.89
2.387,0.01,0.19,-0.31,0.36
2.397,0.28,0.27,0.08,0.40
2.409,0.45,0.15,0.15,0.50
2.417,0.44,0.03,-0.00,0.44
2.427,0.25,-0.02,-0.15,0.29
2.437,0.13,-0.05,-0.19,0.23
2.447,0.04,-0.14,-0.14,0.20
2.457,-0.04,-0.16,-0.10,0.19
2.467,-0.11,-0.08,-0.14,0.20
2.477,-0.24,-0.03,-0.03,0.24
2.487,-0.29,0.04,0.13,0.32
2.497,-0.19,0.10,0.20,0.30
2.507,-0.14,0.11,0.11,0.21
2.517,-0.16,0.08,0.08,0.19
2.528,-0.13,0.23,0.08,0.28
2.538,-0.15,0.35,0.02,0.38
2.548,0.02,0.54,-0.07,0.54
2.558,0.21,0.63,-0.08,0.67
2.568,0.39,0.60,-0.07,0.72
2.578,0.45,0.56,-0.14,0.73
2.588,0.11,0.26,-0.10,0.30
2.598,-0.04,0.05,-0.02,0.06
2.608,-0.07,0.00,-0.02,0.07
2.618,-0.02,-0.01,0.02,0.02
2.628,0.05,0.10,0.11,0.16
2.638,0.01,0.12,0.19,0.23
2.648,0.02,0.06,0.24,0.25
2.658,0.07,0.06,0.04,0.10
2.669,0.07,-0.08,-0.05,0.12
2.679,0.10,-0.14,-0.05,0.18
2.689,0.08,-0.09,-0.01,0.12
2.699,0.05,0.04,0.05,0.08
2.709,0.05,0.09,0.01,0.11
2.719,0.04,0.13,-0.13,0.19
2.729,0.07,0.15,-0.18,0.25
2.739,0.13,0.12,-0.24,0.29
2.749,0.11,0.01,-0.19,0.22
2.759,0.04,-0.10,-0.01,0.11
2.769,0.06,-0.03,0.14,0.15
2.779,0.06,0.09,0.16,0.19
2.790,0.02,0.13,0.07,0.15
2.799,-0.02,0.16,-0.08,0.18
2.810,-0.05,0.05,-0.05,0.08
2.820,-0.02,-0.01,0.02,0.03
2.830,-0.01,-0.06,0.05,0.09
2.840,-0.00,-0.08,0.05,0.10
2.850,-0.07,-0.15,0.18,0.24
2.860,-0.05,-0.14,0.25,0.29
2.870,-0.03,-0.07,0.02,0.08
2.880,-0.07,-0.01,-0.13,0.15
2.890,-0.06,0.11,-0.17,0.21
2.900,0.04,0.17,-0.14,0.22
2.910,0.13,0.21,-0.06,0.25
2.920,0.06,0.14,0.05,0.16
2.930,-0.00,0.08,0.02,0.08
2.940,0.07,0.06,-0.04,0.10
2.950,0.11,0.05,-0.05,0.13
2.961,0.08,0.01,-0.04,0.09
2.971,0.05,0.00,0.00,0.05
2.981,-0.01,0.02,-0.01,0.02
2.991,-0.02,0.03,-0.06,0.07
3.001,0.00,0.01,-0.04,0.04
3.011,0.05,0.01,0.03,0.06
3.021,0.08,-0.03,0.03,0.09
3.031,0.05,-0.06,-0.03,0.08
3.041,0.04,-0.03,-0.08,0.09
3.051,0.00,-0.01,-0.03,0.03
3.061,-0.02,0.02,0.06,0.07
3.071,-0.02,0.06,0.13,0.14
3.081,-0.03,0.07,0.10,0.13
3.092,-0.04,0.01,0.08,0.09
3.102,-0.03,-0.02,0.00,0.04
3.112,-0.01,-0.05,-0.04,0.07
3.122,-0.02,-0.04,-0.04,0.06
3.132,-0.01,-0.03,-0.05,0.06
3.142,-0.01,-0.01,-0.05,0.05
3.152,0.01,-0.00,-0.05,0.05
3.162,0.02,-0.00,-0.03,0.04
3.172,-0.00,0.04,0.01,0.05
3.182,0.03,0.08,0.01,0.09
3.192,0.04,0.07,0.02,0.08
3.202,0.05,0.06,0.05,0.09
3.212,0.06,-0.00,0.03,0.07
3.222,0.03,-0.04,-0.01,0.05
3.232,0.01,-0.04,-0.03,0.05
3.242,0.00,-0.03,-0.02,0.04
3.253,0.02,-0.00,0.04,0.04
3.263,0.05,0.05,0.08,0.10
3.273,0.08,-0.00,0.05,0.09
3.283,0.07,-0.03,-0.02,0.08
3.293,0.02,-0.02,-0.06,0.07
3.303,0.03,-0.04,-0.10,0.11
3.313,-0.01,-0.02,-0.08,0.09
3.323,-0.02,-0.00,-0.03,0.04
3.333,-0.03,0.03,0.05,0.06
3.343,-0.02,0.03,0.08,0.09
3.353,0.00,0.02,0.06,0.06
3.363,0.01,-0.00,-0.02,0.03
3.373,0.01,-0.07,-0.07,0.10
3.383,0.02,-0.05,-0.04,0.07
3.394,-0.01,-0.00,0.01,0.01
3.404,-0.06,0.03,0.02,0.07
3.414,-0.07,0.04,-0.01,0.09
3.424,-0.04,0.02,-0.00,0.04
3.434,-0.02,-0.03,0.02,0.04
3.444,0.02,-0.06,0.03,0.07
3.454,0.00,-0.07,0.04,0.08
3.464,-0.02,-0.03,-0.02,0.04
3.474,-0.02,0.04,-0.02,0.05
3.484,-0.04,0.08,0.04,0.10
3.494,-0.01,0.08,0.06,0.10
3.504,0.01,0.08,0.04,0.10
3.514,0.03,0.09,0.02,0.10
3.524,0.06,0.05,0.01,0.08
3.535,0.02,-0.01,-0.01,0.03
3.545,0.01,-0.05,-0.01,0.05
3.555,-0.00,-0.06,-0.00,0.06
3.565,0.00,-0.03,0.00,0.03
3.575,0.02,-0.03,-0.02,0.04
3.585,0.02,-0.04,-0.05,0.07
3.595,0.00,-0.02,-0.06,0.06
3.605,0.01,-0.02,-0.07,0.07
3.615,0.03,-0.02,-0.07,0.08
3.625,0.02,-0.02,-0.05,0.05
3.635,0.01,-0.01,-0.00,0.01
3.645,-0.02,-0.02,-0.00,0.02
3.655,-0.01,-0.04,0.03,0.05
3.665,0.02,0.01,0.07,0.08
3.675,-0.04,0.02,0.08,0.09
3.686,-0.06,0.02,0.06,0.09
3.696,-0.06,0.01,-0.02,0.06
3.706,-0.00,0.01,-0.05,0.05
3.716,0.00,0.00,-0.03,0.03
3.726,0.01,-0.03,0.01,0.03
3.736,-0.03,0.01,0.03,0.05
3.746,-0.05,-0.00,0.04,0.07
3.756,-0.04,-0.01,0.04,0.06
3.766,-0.01,0.01,0.08,0.08
3.776,-0.00,0.05,0.09,0.10
3.786,-0.01,0.06,-0.00,0.06
3.796,-0.02,0.02,-0.03,0.04
3.806,0.01,-0.00,-0.02,0.02
3.816,0.01,0.01,-0.00,0.01
3.826,0.03,0.01,-0.01,0.03
3.837,-0.00,0.02,-0.01,0.02
3.847,-0.03,0.01,0.00,0.03
3.857,-0.07,0.02,0.04,0.08
3.867,-0.04,0.00,0.05,0.07
3.877,-0.00,0.01,0.04,0.04
3.887,0.01,-0.00,-0.01,0.02
3.897,0.04,-0.00,-0.08,0.09
3.907,0.06,-0.03,-0.08,0.10
3.917,0.04,0.01,-0.04,0.06
3.927,0.01,0.03,-0.05,0.06
3.937,0.01,0.02,-0.04,0.05
3.947,0.02,-0.02,0.00,0.03
3.958,0.02,-0.04,-0.03,0.05
3.968,-0.01,-0.05,-0.04,0.06
3.978,-0.00,-0.03,-0.05,0.06
3.988,-0.02,-0.02,0.01,0.03
3.998,-0.03,-0.02,0.03,0.04
4.008,-0.03,0.02,0.03,0.05
4.018,-0.04,0.04,0.03,0.07
4.028,-0.02,0.03,0.02,0.04
4.038,-0.01,0.03,0.05,0.06
4.048,-0.01,0.02,0.03,0.03
4.058,-0.02,0.01,0.03,0.04
4.068,-0.01,0.01,0.04,0.04
4.078,-0.00,0.00,0.02,0.02
4.088,-0.03,-0.01,-0.00,0.03
4.098,-0.01,0.01,-0.02,0.03
4.108,-0.00,0.03,0.03,0.04
4.119,0.02,0.03,0.03,0.04
4.129,-0.00,-0.04,-0.01,0.04
4.139,0.05,-0.05,-0.03,0.08
4.149,0.00,-0.03,-0.03,0.04
4.159,0.01,-0.02,-0.03,0.04
4.169,0.02,-0.01,-0.03,0.04
4.179,0.02,-0.02,-0.01,0.03
4.189,-0.00,0.03,-0.00,0.03
4.199,-0.01,0.01,-0.01,0.02
4.209,-0.03,0.00,-0.05,0.05
4.219,0.00,-0.00,-0.04,0.04
4.229,0.00,-0.03,0.02,0.04
4.239,-0.02,-0.06,0.06,0.09
4.249,-0.02,-0.05,0.05,0.07
4.260,-0.00,-0.02,0.01,0.02
4.270,-0.01,0.00,-0.04,0.04
4.280,-0.00,0.02,-0.03,0.04
4.290,-0.02,0.03,-0.01,0.04
4.300,-0.02,0.04,-0.01,0.04
4.310,-0.02,0.05,0.02,0.06
4.320,-0.03,0.05,0.05,0.07
4.330,-0.00,0.02,0.03,0.03
4.340,-0.01,0.02,0.03,0.04
4.350,-0.01,-0.00,0.02,0.02
4.360,-0.01,-0.04,0.01,0.05
4.370,-0.02,-0.04,0.00,0.04
4.380,-0.02,-0.01,0.02,0.03
4.390,-0.01,-0.02,0.00,0.02
4.401,0.03,-0.02,-0.02,0.04
4.410,0.02,-0.01,-0.02,0.03
4.421,0.02,-0.01,-0.03,0.04
4.431,0.03,-0.00,-0.03,0.05
4.441,0.01,-0.00,-0.01,0.02
4.451,0.01,-0.01,0.02,0.02
4.461,0.00,-0.01,0.01,0.02
4.471,-0.01,-0.01,0.02,0.02
4.481,-0.00,0.02,0.01,0.02
4.491,-0.05,0.02,-0.05,0.07
4.501,0.01,-0.01,-0.08,0.08
4.511,0.02,-0.02,-0.03,0.04
4.521,0.00,-0.00,0.02,0.02
4.531,-0.00,0.00,0.05,0.05
4.542,-0.02,0.03,0.02,0.04
4.552,-0.04,0.03,0.04,0.06
4.562,-0.03,0.01,0.06,0.06
4.572,-0.01,0.02,0.04,0.04
4.582,-0.03,0.04,0.01,0.05
4.592,-0.02,0.03,0.00,0.04
4.602,-0.00,-0.01,0.03,0.03
4.612,0.00,0.00,0.01,0.02
4.622,0.01,-0.02,-0.00,0.02
4.632,-0.01,-0.03,-0.03,0.04
4.642,-0.02,-0.03,-0.01,0.04
4.652,0.01,-0.01,0.01,0.02
4.662,-0.01,0.00,0.01,0.02
4.672,-0.00,0.02,-0.02,0.03
4.683,-0.00,0.01,-0.00,0.01
4.693,0.01,-0.00,0.02,0.03
4.703,0.01,-0.02,0.01,0.02
4.713,0.01,-0.01,-0.02,0.02
4.723,0.02,-0.03,-0.03,0.04
4.733,0.01,-0.04,-0.03,0.05
4.743,-0.02,-0.03,-0.02,0.04
4.753,-0.01,0.01,-0.02,0.03
4.763,-0.01,0.02,0.02,0.03
4.773,-0.01,0.02,0.01,0.03
4.783,-0.02,0.02,0.00,0.02
4.793,0.00,0.00,-0.02,0.02
4.803,0.01,-0.01,0.02,0.02
4.813,-0.00,-0.02,0.02,0.03
4.823,0.00,-0.01,0.00,0.01
4.833,-0.02,0.02,0.02,0.03
4.844,-0.03,0.01,0.04,0.05
4.854,-0.02,0.01,0.04,0.05
4.864,-0.00,-0.00,0.01,0.01
4.874,-0.00,0.02,0.00,0.02
4.884,0.00,-0.00,0.01,0.01
4.894,-0.01,-0.02,0.00,0.02
4.904,-0.00,-0.03,-0.01,0.03
4.914,0.03,-0.04,-0.02,0.05
4.924,0.01,-0.01,-0.03,0.03
4.934,0.02,-0.00,-0.03,0.03
4.944,-0.02,-0.02,-0.03,0.04
4.954,-0.01,-0.02,-0.01,0.02
4.964,-0.01,-0.00,0.02,0.02
4.974,-0.00,0.00,0.04,0.04
4.985,-0.00,-0.02,-0.03,0.04
4.994,-0.01,-0.02,-0.06,0.06
5.005,0.01,-0.03,-0.04,0.05
5.015,0.02,-0.05,0.00,0.05
5.025,0.01,-0.04,0.02,0.05
5.035,-0.00,-0.02,0.02,0.03
5.045,-0.01,0.01,0.04,0.05
5.055,0.00,0.03,0.02,0.04
5.065,-0.01,0.05,0.01,0.05
5.075,-0.02,0.04,-0.01,0.05
5.085,-0.02,0.03,0.00,0.03
5.095,-0.00,0.02,0.01,0.02
5.106,-0.00,0.03,0.03,0.04
5.115,0.00,-0.00,0.02,0.02
5.126,-0.02,0.00,0.02,0.03
5.136,-0.05,0.01,0.04,0.06
5.146,-0.02,-0.02,0.05,0.06
5.156,-0.00,-0.02,0.02,0.02
5.166,0.01,-0.05,-0.02,0.06
5.176,0.01,-0.06,-0.05,0.08
5.186,0.04,-0.05,-0.07,0.09
5.196,0.04,-0.02,-0.05,0.07
5.206,0.03,-0.01,-0.01,0.03
5.216,0.02,0.01,-0.02,0.03
5.226,-0.00,0.01,0.00,0.01
5.236,0.01,-0.00,0.04,0.04
5.246,0.02,-0.00,0.05,0.06
5.256,-0.00,0.02,0.05,0.05
5.267,-0.02,0.03,0.01,0.03
5.277,-0.03,-0.00,-0.08,0.09
5.287,-0.01,-0.03,-0.06,0.07
5.297,-0.00,-0.03,0.01,0.03
5.307,-0.01,-0.03,0.01,0.03
5.317,-0.01,0.01,0.02,0.02
5.327,-0.01,0.03,0.03,0.05
5.337,-0.03,0.05,0.01,0.06
5.347,-0.01,0.03,0.02,0.04
5.357,-0.03,0.04,0.03,0.05
5.367,-0.04,0.02,0.03,0.05
5.377,-0.01,0.01,0.03,0.03
5.387,0.00,-0.00,0.01,0.01
5.397,0.01,-0.02,0.02,0.03
5.408,0.01,-0.01,0.02,0.02
5.418,-0.03,0.01,-0.00,0.03
5.428,-0.00,-0.02,-0.00,0.02
5.438,0.01,-0.02,-0.02,0.03
5.448,-0.00,-0.01,-0.02,0.03
5.458,0.01,-0.01,-0.02,0.03
5.468,0.01,-0.01,0.00,0.02
5.478,0.02,-0.00,0.01,0.02
5.488,0.02,-0.02,-0.00,0.03
5.498,-0.00,-0.02,-0.01,0.03
5.508,0.01,-0.01,-0.01,0.02
5.518,-0.00,-0.01,-0.02,0.03
5.528,0.01,-0.02,-0.02,0.03
5.538,-0.00,0.02,-0.00,0.02
5.549,-0.00,0.01,0.00,0.01
5.558,-0.01,0.02,0.03,0.04
5.569,-0.03,0.01,0.02,0.04
5.579,-0.00,0.01,0.01,0.01
5.589,0.00,0.02,0.04,0.05
5.599,-0.01,0.01,0.02,0.03
5.609,-0.02,0.01,0.01,0.02
5.619,-0.01,0.00,0.02,0.03
5.629,-0.02,0.01,0.03,0.04
5.639,-0.03,0.02,0.00,0.03
5.649,0.01,0.01,-0.04,0.04
5.659,0.02,-0.01,-0.01,0.02
5.669,-0.02,0.00,-0.00,0.02
5.679,-0.01,-0.00,0.03,0.03
5.690,-0.03,0.00,0.03,0.04
5.699,-0.02,-0.00,-0.00,0.02
5.710,0.02,-0.01,0.01,0.02
5.720,0.03,-0.01,0.04,0.05
5.730,0.03,-0.03,-0.03,0.05
5.740,0.03,-0.02,-0.05,0.06
5.750,-0.02,0.00,0.01,0.02
5.760,-0.00,0.01,-0.00,0.01
5.770,0.01,-0.00,0.01,0.01
5.780,0.00,0.00,-0.03,0.03
5.790,0.00,-0.02,-0.07,0.08
5.800,0.01,-0.03,-0.04,0.05
5.810,0.03,-0.05,0.01,0.06
5.820,0.01,-0.05,0.04,0.07
5.830,0.00,-0.02,0.04,0.05
5.840,-0.00,0.01,0.01,0.02
5.851,-0.03,0.02,-0.02,0.05
5.861,-0.02,0.04,0.00,0.04
5.871,-0.00,0.04,0.03,0.05
5.881,-0.02,0.04,0.05,0.06
5.891,-0.03,0.04,0.03,0.06
5.901,-0.01,0.05,0.04,0.06
5.911,-0.02,0.03,0.07,0.07
5.921,-0.04,-0.02,0.04,0.06
5.931,-0.01,-0.01,0.03,0.03
5.941,-0.00,0.00,0.00,0.00
5.951,0.01,-0.04,-0.01,0.04
5.961,-0.00,-0.03,-0.02,0.04
5.971,0.02,-0.03,-0.03,0.05
5.982,0.03,-0.03,-0.07,0.08
5.992,0.03,-0.04,-0.08,0.10
6.002,0.04,-0.03,-0.06,0.08
6.012,0.04,-0.04,-0.05,0.08
6.022,0.03,-0.02,-0.04,0.06
6.032,0.03,0.00,0.00,0.03
6.042,0.00,0.02,0.04,0.04
6.052,-0.02,0.04,0.05,0.07
6.062,-0.04,0.03,0.02,0.05
6.072,-0.02,0.00,-0.07,0.07
6.082,-0.00,0.01,-0.05,0.05
6.092,-0.01,0.00,0.04,0.05
6.102,-0.04,-0.02,0.07,0.09
6.112,0.02,0.02,0.03,0.04
6.122,-0.02,0.03,-0.00,0.04
6.133,-0.02,0.01,-0.01,0.02
6.143,-0.01,0.01,0.04,0.05
6.153,-0.02,0.00,0.01,0.02
6.163,-0.02,0.00,-0.01,0.02
6.173,-0.01,0.03,0.00,0.04
6.183,0.01,0.02,0.05,0.05
6.193,-0.00,-0.00,0.03,0.03
6.203,0.01,-0.02,0.02,0.03
6.213,0.02,-0.01,0.01,0.02
6.223,-0.01,-0.03,0.01,0.03
6.233,-0.02,-0.05,0.00,0.05
6.243,-0.00,-0.04,-0.03,0.05
6.253,0.00,-0.04,-0.04,0.05
6.263,0.02,-0.02,-0.01,0.03
6.274,0.03,0.00,-0.02,0.03
6.283,0.01,0.01,-0.03,0.03
6.294,0.01,-0.01,-0.02,0.02
6.304,0.03,-0.04,-0.00,0.05
6.314,0.02,-0.01,-0.03,0.04
6.324,-0.01,-0.01,-0.03,0.04
6.334,-0.02,-0.02,-0.01,0.03
6.344,-0.01,-0.00,0.01,0.02
6.354,-0.02,-0.00,0.00,0.02
6.364,-0.03,0.01,0.00,0.04
6.374,-0.02,0.02,0.02,0.03
6.384,-0.01,0.01,0.03,0.03
6.394,-0.02,0.01,0.02,0.03
6.404,-0.03,0.03,0.03,0.05
6.414,-0.01,0.01,0.03,0.03
6.424,-0.00,-0.01,0.04,0.04
6.435,-0.02,-0.00,0.01,0.02
6.445,-0.02,0.01,-0.05,0.06
6.455,-0.02,-0.00,-0.02,0.03
6.465,0.01,-0.02,-0.02,0.03
6.475,-0.00,-0.02,-0.00,0.02
6.485,0.02,-0.01,0.01,0.02
6.495,0.02,-0.01,0.01,0.02
6.505,-0.00,0.01,0.00,0.01
6.515,-0.00,0.02,-0.00,0.02
6.525,0.00,-0.00,-0.01,0.01
6.535,0.00,-0.00,-0.02,0.02
6.545,-0.00,-0.01,0.02,0.02
6.556,0.00,0.01,-0.03,0.04
6.566,0.00,-0.02,-0.06,0.06
6.576,0.02,-0.01,-0.05,0.05
6.586,0.04,-0.01,0.01,0.04
6.596,0.02,-0.01,0.07,0.07
6.606,0.00,0.00,0.04,0.04
6.616,-0.02,0.03,0.02,0.04
6.626,-0.01,0.05,0.01,0.05
6.636,-0.01,0.03,-0.04,0.05
6.646,-0.01,0.03,-0.01,0.03
6.656,-0.04,0.01,0.00,0.04
6.666,-0.03,0.01,0.03,0.04
6.676,-0.01,0.03,0.02,0.04
6.686,-0.02,0.01,0.04,0.05
6.697,-0.01,-0.01,0.05,0.05
6.706,-0.01,-0.02,0.03,0.04
6.717,0.00,-0.04,-0.00,0.04
6.727,0.01,-0.03,-0.01,0.03
6.737,-0.01,-0.02,-0.00,0.02
6.747,-0.01,-0.03,-0.00,0.03
6.757,0.00,-0.02,-0.04,0.05
6.767,0.01,-0.02,-0.04,0.05
6.777,0.00,-0.03,-0.04,0.05
6.787,0.02,-0.01,-0.01,0.02
6.797,0.02,-0.01,0.01,0.02
6.807,0.01,-0.01,0.00,0.01
6.817,-0.01,0.02,0.01,0.03
6.827,-0.01,0.04,0.04,0.06
6.837,-0.04,0.01,0.03,0.05
6.848,-0.01,0.03,-0.03,0.04
6.858,-0.01,0.02,-0.05,0.06
6.868,-0.00,-0.01,-0.01,0.02
6.878,-0.00,-0.02,0.07,0.07
6.888,-0.02,0.02,0.03,0.04
6.898,-0.02,0.01,-0.02,0.03
6.908,-0.01,0.01,0.01,0.02
6.918,-0.02,0.03,0.05,0.06
6.928,-0.01,0.02,0.04,0.04
6.938,-0.01,0.03,0.03,0.04
6.948,-0.01,0.01,0.03,0.03
6.958,0.01,-0.01,0.03,0.03
6.968,0.03,-0.03,0.03,0.05
6.978,0.01,-0.03,0.02,0.04
6.988,-0.00,-0.02,0.01,0.02
6.999,-0.01,-0.01,0.00,0.02
7.009,-0.00,-0.01,0.02,0.02
7.019,0.02,-0.04,-0.02,0.04
7.029,0.02,-0.03,-0.04,0.06
7.039,0.02,-0.02,-0.01,0.03
7.049,0.01,0.00,-0.01,0.02
7.059,0.02,-0.01,-0.03,0.04
7.069,0.02,-0.02,-0.02,0.03
7.079,0.03,-0.01,-0.01,0.03
7.089,0.00,-0.01,-0.01,0.01
7.099,0.01,-0.01,-0.00,0.02
7.109,-0.02,0.01,0.00,0.02
7.119,-0.02,0.01,0.01,0.02
7.129,-0.03,-0.01,0.01,0.03
7.140,-0.04,0.02,0.01,0.04
7.149,-0.02,0.00,0.03,0.03
7.160,-0.01,-0.01,0.00,0.01
7.170,0.00,-0.00,-0.00,0.00
7.180,0.02,0.01,0.01,0.02
7.190,-0.01,0.01,0.03,0.03
7.200,-0.03,0.00,-0.03,0.04
7.210,0.00,0.01,-0.02,0.02
7.220,-0.01,-0.01,0.04,0.04
7.230,0.01,-0.02,0.00,0.02
7.240,-0.00,-0.07,0.01,0.08
7.250,0.04,0.01,0.02,0.04
7.260,-0.03,0.00,-0.02,0.04
7.270,-0.01,-0.02,-0.02,0.03
7.281,0.01,0.03,0.01,0.03
7.291,-0.03,-0.01,-0.02,0.04
7.301,-0.00,0.00,-0.03,0.03
7.311,0.00,0.03,0.02,0.04
7.321,-0.04,0.03,0.02,0.05
7.331,-0.02,0.02,0.01,0.03
7.341,-0.01,-0.00,0.01,0.02
7.351,-0.00,-0.02,0.02,0.03
7.361,0.01,-0.02,0.04,0.05
7.371,0.02,-0.01,0.05,0.05
7.381,0.01,-0.01,0.01,0.02
7.391,0.01,-0.01,-0.00,0.02
7.401,0.01,0.02,-0.04,0.04
7.411,0.03,0.01,-0.07,0.07
7.421,0.02,-0.01,-0.04,0.04
7.431,-0.00,0.01,0.01,0.02
7.442,-0.01,0.02,0.04,0.05
7.452,0.01,0.02,0.06,0.07
7.462,-0.00,-0.01,0.06,0.06
7.472,-0.00,-0.00,0.03,0.03
7.482,-0.01,-0.02,0.01,0.02
7.492,-0.01,-0.04,-0.03,0.05
7.502,0.01,-0.03,-0.01,0.03
7.512,0.01,-0.03,-0.02,0.04
7.522,0.00,-0.01,-0.03,0.04
7.532,0.01,0.00,-0.00,0.01
7.542,0.01,0.02,-0.01,0.02
7.552,0.02,0.02,0.01,0.03
7.562,0.02,0.01,0.00,0.02
7.572,-0.01,0.01,-0.01,0.01
7.583,-0.03,0.01,0.03,0.04
7.593,-0.02,-0.01,0.04,0.04
7.603,-0.01,0.00,0.02,0.03
7.613,-0.03,0.01,-0.02,0.04
7.623,-0.00,0.01,-0.07,0.07
7.633,0.02,0.01,-0.05,0.05
7.643,0.02,-0.01,0.02,0.03
7.653,-0.02,0.03,0.07,0.08
7.663,-0.05,0.04,0.05,0.08
7.673,-0.05,0.02,0.04,0.07
7.683,-0.03,0.03,0.05,0.07
7.693,-0.03,0.03,0.07,0.08
7.704,-0.01,0.00,0.02,0.02
7.714,-0.00,-0.01,0.00,0.01
7.724,0.02,-0.01,0.00,0.02
7.734,0.03,-0.01,-0.01,0.03
7.744,0.01,-0.05,-0.03,0.05
7.754,0.01,-0.04,-0.02,0.05
7.764,0.00,-0.02,-0.02,0.03
7.774,0.02,-0.01,-0.02,0.03
7.784,-0.01,0.00,-0.02,0.02
7.794,0.00,-0.00,-0.00,0.01
7.804,0.01,-0.02,0.01,0.02
7.814,0.03,0.02,-0.01,0.04
7.824,0.02,0.00,-0.04,0.04
7.834,0.02,-0.01,-0.03,0.04
7.844,0.03,-0.01,-0.01,0.03
7.854,-0.03,-0.00,0.01,0.03
7.865,-0.02,-0.00,0.01,0.03
7.875,-0.00,-0.00,-0.00,0.00
7.885,-0.02,0.00,-0.01,0.02
7.895,0.00,-0.00,0.01,0.01
7.905,-0.01,0.02,0.01,0.02
7.915,-0.02,0.01,-0.01,0.02
7.925,0.00,0.01,0.00,0.01
7.935,-0.01,0.01,-0.01,0.02
7.945,-0.02,0.03,0.00,0.03
7.955,-0.02,0.02,0.02,0.04
7.965,-0.02,0.01,0.03,0.04
7.975,-0.04,0.00,0.04,0.05
7.985,-0.03,0.02,0.03,0.04
7.995,-0.02,0.00,0.05,0.05
8.006,-0.01,0.00,0.05,0.05
8.016,-0.00,0.02,-0.02,0.03
8.026,0.01,0.01,-0.02,0.03
8.036,0.01,-0.01,-0.02,0.03
8.046,0.02,-0.03,-0.01,0.04
8.056,0.02,-0.01,-0.04,0.04
8.066,-0.01,0.00,-0.00,0.01
8.076,0.00,0.01,-0.01,0.01
8.086,0.01,0.02,0.02,0.03
8.096,-0.01,-0.00,0.02,0.02
8.106,-0.00,0.01,-0.02,0.02
8.116,0.01,0.01,-0.00,0.02
8.126,-0.01,0.01,-0.01,0.02
8.136,-0.01,-0.00,0.00,0.01
8.147,-0.02,-0.03,-0.05,0.05
8.157,-0.01,-0.00,-0.03,0.03
8.167,0.00,0.01,0.00,0.01
8.177,-0.01,-0.02,0.06,0.06
8.187,-0.00,-0.05,0.08,0.09
8.197,0.00,-0.02,0.05,0.06
8.207,0.01,-0.00,-0.04,0.05
8.217,-0.00,0.01,-0.07,0.07
8.227,-0.00,0.03,-0.02,0.03
8.237,0.01,0.00,0.02,0.02
8.247,0.01,0.02,0.03,0.03
8.257,-0.01,0.05,0.04,0.06
8.267,-0.01,0.04,0.05,0.07
8.277,0.02,0.02,0.05,0.06
8.288,0.00,-0.02,0.03,0.04
8.298,-0.00,-0.05,0.01,0.05
8.308,0.00,-0.03,0.01,0.03
8.318,-0.01,-0.04,-0.00,0.04
8.328,-0.01,-0.03,-0.01,0.03
8.338,0.00,-0.02,-0.02,0.03
8.348,0.01,-0.02,-0.01,0.03
8.358,0.03,-0.00,-0.03,0.04
8.368,0.02,0.02,-0.02,0.04
8.378,0.00,0.01,-0.02,0.02
8.388,-0.00,0.01,0.01,0.01
8.398,-0.01,-0.01,0.02,0.03
8.408,0.01,-0.00,0.02,0.02
8.418,-0.01,-0.01,0.01,0.02
8.429,-0.03,0.02,0.01,0.03
8.439,-0.03,0.05,-0.03,0.07
8.449,0.00,0.05,-0.03,0.05
8.459,-0.02,0.01,0.03,0.04
8.469,-0.00,-0.02,0.03,0.04
8.479,-0.00,-0.02,0.01,0.03
8.489,0.00,0.00,-0.00,0.01
8.499,0.00,0.01,-0.01,0.01
8.509,0.01,-0.00,0.02,0.02
8.519,-0.02,0.02,0.02,0.03
8.529,-0.01,-0.01,0.00,0.02
8.539,0.01,0.02,0.01,0.03
8.549,0.01,0.03,0.03,0.04
8.559,0.02,-0.02,0.03,0.04
8.570,0.01,-0.02,0.02,0.03
8.579,0.00,-0.00,0.01,0.01
8.590,-0.01,-0.03,0.01,0.03
8.600,-0.00,-0.01,-0.03,0.03
8.610,0.01,-0.01,-0.05,0.05
8.620,0.01,-0.01,-0.03,0.04
8.630,0.00,0.01,-0.02,0.02
8.640,0.02,0.01,0.01,0.02
8.650,0.01,0.02,0.00,0.03
8.660,-0.00,0.01,0.00,0.01
8.670,-0.01,0.00,0.00,0.01
8.680,0.01,0.00,0.00,0.01
8.690,0.01,0.01,0.02,0.02
8.700,-0.01,0.01,0.02,0.02
8.710,-0.02,0.00,-0.01,0.02
8.720,-0.03,0.01,0.00,0.03
8.731,-0.01,0.01,0.01,0.02
8.741,-0.01,0.01,-0.00,0.01
8.751,-0.01,0.00,-0.01,0.02
8.761,0.01,0.01,-0.01,0.02
8.771,-0.01,0.01,0.01,0.01
8.781,-0.00,0.04,0.02,0.04
8.791,-0.02,0.01,0.03,0.03
8.801,-0.01,0.02,0.04,0.04
8.811,-0.00,0.01,0.01,0.01
8.821,-0.01,-0.01,-0.02,0.03
8.831,-0.01,-0.01,-0.00,0.01
8.841,0.01,-0.01,0.01,0.02
8.851,0.01,-0.01,-0.00,0.01
8.861,-0.00,0.02,-0.02,0.03
8.872,-0.01,0.00,0.00,0.01
8.882,-0.01,0.01,0.01,0.01
8.892,-0.01,0.00,0.01,0.02
8.902,0.01,-0.01,0.00,0.01
8.912,0.01,-0.01,-0.03,0.03
8.922,0.00,0.00,-0.02,0.02
8.932,0.01,0.00,-0.01,0.01
8.942,-0.01,0.01,0.02,0.02
8.952,0.00,0.01,0.02,0.03
8.962,-0.01,0.01,0.00,0.02
8.972,-0.01,0.01,0.01,0.02
8.982,-0.01,0.03,0.02,0.04
8.992,-0.01,0.02,0.01,0.02
9.002,-0.00,-0.00,0.02,0.02
9.013,-0.01,0.01,0.03,0.03
9.023,0.00,0.00,0.00,0.01
9.033,0.01,-0.01,-0.01,0.02
9.043,0.00,-0.01,-0.01,0.01
9.053,0.01,-0.02,0.01,0.02
9.063,0.01,0.00,0.00,0.01
9.073,0.03,0.00,-0.00,0.03
9.083,0.01,0.01,0.01,0.02
9.093,-0.01,0.01,-0.00,0.01
9.103,0.01,-0.01,0.01,0.02
9.113,-0.00,0.00,0.01,0.01
9.123,-0.02,0.01,0.00,0.02
9.133,-0.03,0.00,0.00,0.03
9.143,0.02,-0.01,0.02,0.02
9.154,0.01,-0.02,0.00,0.02
9.164,0.00,-0.01,-0.01,0.01
9.174,0.01,-0.00,-0.02,0.02
9.184,0.00,0.01,-0.02,0.02
9.194,-0.02,0.01,0.02,0.03
9.204,0.02,0.02,0.01,0.03
9.214,-0.04,-0.01,-0.05,0.06
9.224,-0.01,-0.02,-0.07,0.07
9.234,0.01,-0.01,0.03,0.03
9.244,0.00,-0.01,0.05,0.05
9.254,0.00,-0.03,0.04,0.05
9.264,-0.01,-0.00,0.05,0.05
9.274,-0.02,0.01,0.03,0.04
9.284,-0.02,0.02,-0.03,0.04
9.295,-0.00,0.03,-0.05,0.06
9.305,-0.01,0.04,-0.01,0.04
9.315,-0.01,0.06,0.04,0.07
9.325,0.00,0.06,0.07,0.10
9.335,-0.00,0.04,0.07,0.08
9.345,0.00,-0.00,0.04,0.04
9.355,0.00,-0.03,0.01,0.03
9.365,0.00,-0.05,-0.02,0.05
9.375,-0.02,-0.04,-0.01,0.05
9.385,0.01,-0.03,0.00,0.03
9.395,0.03,-0.01,-0.03,0.04
9.405,0.02,-0.00,-0.02,0.03
9.415,0.02,-0.01,-0.03,0.04
9.425,0.02,-0.00,-0.04,0.04
9.436,0.01,0.00,-0.03,0.03
9.445,0.01,-0.01,0.01,0.02
9.456,-0.00,-0.02,0.02,0.03
9.466,-0.00,0.01,-0.00,0.01
9.476,-0.02,0.00,0.02,0.02
9.486,-0.02,0.02,0.03,0.04
9.496,-0.01,0.01,0.04,0.04
9.506,-0.02,0.01,-0.01,0.03
9.516,0.00,-0.01,-0.08,0.08
9.526,0.00,-0.00,-0.06,0.06
9.536,0.00,-0.01,-0.00,0.01
9.546,-0.02,-0.00,0.04,0.05
9.556,-0.02,0.02,0.04,0.05
9.566,-0.03,0.03,0.03,0.05
9.577,-0.02,0.02,0.04,0.05
9.586,-0.02,0.01,0.01,0.02
9.597,0.00,-0.02,-0.02,0.03
9.607,0.01,-0.00,-0.02,0.02
9.617,-0.01,0.01,-0.01,0.02
9.627,0.01,-0.00,0.01,0.01
9.637,-0.00,-0.01,0.02,0.02
9.647,-0.02,0.01,0.04,0.05
9.657,-0.02,-0.01,0.06,0.06
9.667,-0.01,-0.00,0.06,0.06
9.677,0.01,0.00,0.01,0.02
9.687,0.01,0.00,-0.03,0.03
9.697,0.03,-0.02,-0.06,0.06
9.707,0.03,-0.01,-0.04,0.05
9.718,0.03,-0.01,-0.05,0.06
9.727,0.01,-0.02,-0.03,0.04
9.738,0.00,0.00,0.00,0.00
9.748,0.01,0.00,0.02,0.02
9.758,0.07,-0.04,0.12,0.15
9.768,0.01,-0.00,0.09,0.09
9.778,-0.09,0.05,-0.13,0.16
9.788,-0.02,0.02,-0.13,0.13
9.798,-0.00,0.03,0.01,0.04
9.808,-0.03,-0.01,0.07,0.08
9.818,-0.00,-0.01,0.01,0.01
9.828,-0.00,0.00,-0.02,0.02
9.838,-0.02,0.03,-0.00,0.03
9.848,-0.00,0.03,0.02,0.04
9.858,-0.02,0.03,0.03,0.05
9.869,-0.01,0.01,0.03,0.03
9.879,-0.02,0.01,0.02,0.03
9.889,-0.03,-0.00,0.01,0.03
9.899,-0.01,-0.01,0.01,0.01
9.909,-0.01,-0.01,-0.01,0.02
9.919,0.02,-0.02,0.01,0.03
9.929,0.00,-0.02,-0.00,0.02
9.939,0.00,0.01,-0.02,0.03
9.949,0.01,-0.01,-0.03,0.03
9.959,0.01,-0.01,-0.01,0.01
9.969,-0.01,-0.00,0.00,0.01
9.979,0.01,0.02,-0.01,0.02
9.989,0.01,0.01,0.01,0.02
9.999,0.01,-0.00,0.03,0.03
10.009,-0.01,0.00,0.02,0.02
10.020,-0.01,0.02,0.02,0.03
10.030,-0.02,0.02,0.02,0.04
10.040,0.00,0.02,0.04,0.05
10.050,0.00,0.00,-0.03,0.03
10.060,-0.02,-0.03,-0.07,0.08
10.070,-0.00,-0.02,-0.00,0.02
10.080,-0.02,-0.00,-0.00,0.02
10.090,-0.00,0.00,-0.01,0.01
10.100,0.02,-0.01,-0.04,0.05
10.110,-0.02,0.00,-0.01,0.03
10.120,-0.01,0.02,0.02,0.03
10.130,0.02,0.03,0.04,0.05
10.140,-0.02,0.02,0.02,0.04
10.150,-0.02,0.01,-0.03,0.03
10.161,0.01,0.01,-0.04,0.04
10.171,0.01,-0.01,0.00,0.01
10.181,0.01,-0.02,0.03,0.04
10.191,0.02,-0.04,0.03,0.05
10.201,-0.00,-0.04,0.01,0.04
10.211,-0.01,-0.01,0.00,0.01
10.221,-0.00,0.02,-0.01,0.02
10.231,-0.02,0.05,-0.01,0.06
10.241,0.01,0.04,0.02,0.04
10.251,-0.00,0.05,0.05,0.07
10.261,-0.01,0.04,0.03,0.05
10.271,-0.01,0.03,0.03,0.04
10.281,-0.01,-0.01,0.04,0.04
10.291,-0.02,-0.03,0.01,0.03
10.302,-0.01,-0.03,-0.00,0.03
10.312,-0.01,-0.03,-0.01,0.03
10.322,-0.01,-0.02,-0.00,0.02
10.332,0.01,-0.01,0.00,0.01
10.342,0.00,-0.01,0.00,0.01
10.352,0.00,-0.01,-0.03,0.04
10.362,0.03,0.00,-0.02,0.03
10.372,0.03,-0.00,-0.02,0.03
10.382,-0.01,-0.02,-0.04,0.04
10.392,0.02,-0.01,0.00,0.02
10.402,0.01,0.00,0.02,0.02
10.412,-0.01,0.01,0.03,0.03
10.422,-0.01,0.02,0.04,0.05
10.432,-0.02,0.02,0.03,0.04
10.443,-0.02,0.01,-0.01,0.02
10.452,0.03,0.01,-0.07,0.08
10.463,0.05,-0.02,0.05,0.07
10.473,-0.06,0.02,-0.06,0.08
10.483,-0.00,0.01,-0.00,0.01
10.493,0.00,0.03,0.03,0.05
10.503,-0.02,0.02,0.05,0.06
10.513,0.01,0.01,0.06,0.06
10.523,-0.01,0.00,0.03,0.03
10.533,-0.03,0.01,-0.00,0.04
10.543,-0.04,0.03,0.01,0.05
10.553,-0.03,0.01,0.05,0.06
10.563,-0.00,-0.01,0.03,0.03
10.573,0.01,0.01,0.00,0.01
10.584,-0.00,-0.01,0.00,0.01
10.593,0.00,-0.02,-0.01,0.02
10.604,0.01,-0.01,0.01,0.01
10.614,-0.02,0.00,0.01,0.02
10.624,0.00,-0.01,-0.01,0.01
10.634,0.02,-0.03,-0.02,0.04
10.644,-0.00,-0.01,0.00,0.01
10.654,0.00,0.02,-0.02,0.02
10.664,0.03,0.01,-0.00,0.03
10.674,0.01,0.01,0.00,0.01
10.684,-0.01,-0.02,0.01,0.03
10.694,-0.01,-0.02,-0.03,0.04
10.704,0.00,-0.00,-0.03,0.03
10.714,-0.01,0.00,-0.02,0.03
10.724,-0.02,0.02,0.01,0.03
10.734,-0.02,0.02,0.02,0.04
10.745,-0.01,0.04,0.04,0.06
10.755,-0.00,0.03,0.03,0.05
10.765,-0.01,0.00,0.00,0.01
10.775,0.00,-0.01,0.01,0.01
10.785,-0.02,-0.01,-0.00,0.02
10.795,-0.03,0.01,0.01,0.03
10.805,-0.01,-0.01,0.01,0.01
10.815,0.02,-0.02,0.02,0.04
10.825,0.01,-0.01,0.03,0.03
10.835,-0.02,0.02,-0.01,0.03
10.845,0.00,0.03,-0.01,0.03
10.856,0.01,0.03,0.03,0.04
10.865,0.01,-0.01,0.03,0.03
10.876,0.02,-0.02,0.00,0.03
10.886,0.01,-0.02,-0.04,0.04
10.895,0.01,-0.03,-0.03,0.04
10.906,0.00,0.00,0.02,0.02
10.916,-0.00,0.02,0.03,0.04
10.926,0.01,0.00,0.01,0.02
10.936,0.02,-0.00,-0.03,0.03
10.946,0.01,-0.01,-0.03,0.03
10.956,-0.01,0.02,-0.01,0.03
10.966,-0.02,0.02,0.03,0.04
10.976,-0.01,-0.01,0.01,0.02
10.986,-0.01,-0.01,0.02,0.02
10.996,-0.00,0.01,0.01,0.01
11.006,0.01,0.01,-0.03,0.04
11.016,0.02,-0.00,-0.01,0.02
11.027,0.00,0.01,0.01,0.02
11.037,-0.01,0.02,0.00,0.02
11.047,-0.02,0.00,-0.02,0.03
11.057,-0.01,0.00,-0.04,0.05
11.067,0.02,-0.01,-0.00,0.02
11.077,0.01,-0.01,0.07,0.07
11.087,-0.00,-0.04,0.07,0.08
11.097,0.00,-0.01,0.06,0.06
11.107,0.00,0.01,0.00,0.01
11.117,0.01,-0.00,-0.03,0.03
11.127,0.02,0.02,-0.04,0.05
11.137,0.01,0.03,-0.02,0.04
11.147,-0.01,0.02,0.00,0.02
11.157,-0.02,0.04,0.01,0.05
11.168,-0.02,0.04,0.03,0.05
11.178,0.01,0.01,0.04,0.04
11.188,0.01,-0.03,0.04,0.05
11.198,0.01,-0.03,0.02,0.04
11.208,-0.00,-0.03,0.01,0.03
11.218,0.02,-0.05,-0.01,0.05
11.228,0.01,-0.04,-0.02,0.05
11.238,0.00,-0.03,-0.01,0.03
11.248,0.00,-0.02,-0.01,0.02
11.258,0.02,0.01,-0.01,0.02
11.268,0.03,0.01,-0.02,0.04
11.278,0.02,0.01,-0.00,0.02
11.288,-0.01,0.00,0.00,0.01
11.298,-0.01,-0.01,0.01,0.02
11.308,0.01,-0.01,0.03,0.04
11.318,0.01,-0.01,0.05,0.06
11.329,0.04,-0.03,0.12,0.13
11.339,-0.09,0.03,-0.11,0.15
11.349,-0.02,0.02,-0.15,0.15
11.359,0.02,0.02,-0.08,0.08
11.369,-0.02,0.01,0.06,0.06
11.379,0.00,-0.00,0.09,0.09
11.389,-0.02,0.03,0.07,0.08
11.399,-0.02,0.05,0.04,0.07
11.409,-0.02,0.04,0.01,0.04
11.419,-0.01,0.00,0.01,0.02
11.429,0.01,-0.01,0.01,0.02
11.439,-0.01,-0.01,-0.01,0.02
11.450,-0.01,-0.00,-0.03,0.03
11.459,-0.02,0.02,0.00,0.02
11.470,0.01,0.00,0.01,0.02
11.480,-0.00,-0.00,0.02,0.02
11.490,0.00,-0.03,0.02,0.03
11.500,-0.01,-0.03,0.01,0.03
11.510,-0.02,0.00,0.01,0.02
11.520,0.00,-0.01,0.01,0.02
11.530,0.02,-0.01,0.03,0.04
11.540,0.01,-0.01,-0.00,0.02
11.550,0.03,-0.01,-0.05,0.05
11.560,-0.00,-0.00,-0.02,0.02
11.570,0.00,0.01,0.01,0.01
11.580,0.01,-0.00,0.02,0.02
11.591,0.00,0.01,0.01,0.01
11.600,-0.02,0.01,-0.02,0.03
11.611,-0.02,0.02,0.01,0.03
11.621,-0.01,0.02,0.03,0.03
11.631,-0.00,-0.01,0.01,0.02
11.641,-0.00,-0.01,-0.01,0.01
11.651,-0.00,-0.00,-0.02,0.02
11.661,0.00,-0.00,-0.02,0.02
11.671,0.00,0.00,-0.00,0.00
11.681,0.00,0.02,0.03,0.03
11.691,-0.02,0.02,0.02,0.03
11.701,-0.00,0.02,0.03,0.04
11.711,-0.01,0.00,0.05,0.05
11.721,0.00,-0.01,0.02,0.03
11.732,-0.00,-0.02,0.01,0.02
11.741,-0.01,-0.02,-0.00,0.02
11.752,0.00,-0.03,-0.03,0.04
11.762,0.01,-0.02,-0.00,0.02
11.772,0.02,-0.00,-0.00,0.02
11.782,-0.03,0.03,-0.02,0.04
11.792,-0.01,0.02,0.03,0.04
11.802,-0.01,0.00,0.03,0.03
11.812,-0.01,-0.01,0.02,0.02
11.822,0.00,-0.03,0.02,0.03
11.832,-0.00,0.01,-0.00,0.01
11.842,0.00,-0.00,0.00,0.00
11.852,-0.01,-0.01,0.00,0.02
11.862,0.00,0.00,-0.02,0.02
11.873,0.01,-0.01,-0.00,0.01
11.882,-0.03,0.01,-0.02,0.03
11.893,-0.00,0.00,0.01,0.01
11.902,0.05,-0.05,0.17,0.19
11.913,-0.06,0.04,-0.02,0.08
11.923,-0.04,0.03,-0.11,0.12
11.933,-0.01,0.03,-0.07,0.07
11.943,-0.00,0.02,-0.00,0.02
11.953,0.02,-0.02,0.06,0.06
11.963,0.01,-0.03,0.05,0.05
11.973,-0.01,0.00,0.04,0.04
11.983,-0.01,0.01,0.01,0.02
11.993,-0.01,0.00,-0.01,0.01
12.003,-0.01,0.01,-0.02,0.02
12.013,-0.00,0.03,-0.02,0.03
12.023,-0.01,0.01,-0.02,0.02
12.034,0.00,0.03,0.03,0.04
12.043,0.01,0.02,0.05,0.05
12.054,0.00,0.00,0.01,0.01
12.064,0.01,0.00,0.01,0.01
12.074,-0.01,-0.02,0.02,0.03
12.084,0.00,-0.02,0.03,0.03
12.094,0.02,-0.01,0.01,0.02
12.104,0.01,-0.03,0.01,0.03
12.114,0.02,-0.02,-0.00,0.03
12.124,-0.01,-0.02,-0.02,0.03
12.134,0.01,-0.01,-0.02,0.02
12.144,0.01,-0.01,-0.01,0.01
12.154,0.01,-0.02,-0.03,0.04
12.164,0.01,-0.02,-0.02,0.03
12.174,0.03,-0.00,0.06,0.07
12.184,0.08,-0.04,0.18,0.21
12.195,-0.12,0.07,-0.09,0.17
12.205,-0.06,0.02,-0.10,0.12
12.215,-0.01,0.05,-0.03,0.06
12.225,0.00,0.02,0.03,0.04
12.235,0.01,-0.03,-0.03,0.05
12.245,-0.02,-0.03,-0.02,0.04
12.255,-0.02,0.00,0.02,0.03
12.265,-0.01,0.02,0.06,0.07
12.275,-0.01,0.03,0.03,0.05
12.285,0.00,0.02,0.04,0.04
12.295,0.01,0.01,0.03,0.04
12.305,-0.00,0.00,0.01,0.01
12.316,-0.00,0.01,-0.01,0.02
12.326,-0.01,0.01,0.00,0.01
12.336,-0.01,0.00,0.01,0.02
12.346,-0.01,-0.00,0.01,0.01
12.356,-0.02,-0.03,0.02,0.05
12.366,-0.00,-0.03,0.03,0.04
12.376,-0.01,-0.00,0.04,0.04
12.386,0.01,-0.00,0.01,0.01
12.396,0.00,-0.01,0.01,0.02
12.406,0.02,-0.01,-0.02,0.03
12.416,0.00,-0.02,-0.01,0.02
12.426,0.03,-0.01,-0.00,0.04
12.436,0.02,-0.02,-0.04,0.05
12.446,0.01,-0.02,-0.04,0.05
12.457,0.00,-0.02,-0.00,0.02
12.466,-0.01,-0.01,0.02,0.03
12.477,-0.00,0.01,0.01,0.01
12.487,-0.01,0.00,0.00,0.01
12.497,-0.01,0.02,0.02,0.03
12.507,-0.02,0.01,0.03,0.04
12.517,0.00,0.00,0.02,0.02
12.527,-0.01,0.00,0.03,0.03
12.537,-0.02,0.02,0.00,0.03
12.547,-0.01,0.01,-0.00,0.01
12.557,0.00,0.00,0.02,0.02
12.567,-0.01,0.02,0.02,0.03
12.577,-0.01,0.01,0.02,0.03
12.587,-0.01,-0.01,0.02,0.03
12.598,-0.01,-0.01,0.01,0.01
12.607,-0.02,-0.01,-0.01,0.02
12.618,0.01,-0.01,-0.01,0.02
12.628,0.01,-0.03,-0.01,0.03
12.638,-0.01,-0.02,-0.01,0.02
12.648,0.00,-0.02,-0.01,0.02
12.658,-0.01,-0.02,-0.01,0.02
12.668,0.01,-0.01,0.01,0.01
12.678,0.00,0.01,0.00,0.01
12.688,-0.00,0.01,0.00,0.01
12.698,0.01,0.01,-0.02,0.03
12.708,-0.00,0.01,-0.02,0.02
12.718,0.00,-0.00,0.02,0.02
12.728,-0.00,0.01,0.01,0.02
12.739,0.01,-0.00,0.00,0.01
12.748,0.00,-0.00,0.00,0.00
12.759,-0.01,-0.01,0.01,0.02
12.769,-0.00,-0.01,-0.00,0.01
12.779,-0.01,-0.01,0.01,0.02
12.789,0.00,0.03,0.04,0.05
12.799,0.00,0.04,0.05,0.06
12.809,-0.02,0.02,-0.01,0.02
12.819,-0.01,-0.01,-0.04,0.05
12.829,-0.00,-0.01,0.01,0.01
12.839,-0.01,-0.03,0.04,0.06
12.849,-0.02,-0.03,0.06,0.07
12.859,-0.01,-0.03,0.08,0.09
12.869,0.04,-0.02,0.09,0.10
12.879,-0.02,0.02,-0.08,0.08
12.889,-0.01,0.04,-0.12,0.13
12.900,0.01,0.01,-0.06,0.06
12.910,-0.00,0.03,0.03,0.04
12.920,-0.02,0.03,0.05,0.06
12.930,-0.01,0.03,0.03,0.04
12.940,0.01,0.01,0.05,0.05
12.950,0.02,-0.02,0.01,0.03
12.960,0.02,-0.03,0.00,0.04
12.970,0.01,-0.03,-0.01,0.03
12.980,-0.01,0.00,-0.01,0.01
12.990,-0.00,0.01,-0.00,0.01
13.000,-0.01,0.00,-0.01,0.01
13.010,-0.00,0.01,-0.03,0.03
13.021,-0.00,-0.01,-0.00,0.01
13.030,-0.01,-0.01,0.00,0.02
13.041,-0.00,-0.01,-0.01,0.02
13.050,0.02,-0.02,0.05,0.06
13.061,0.12,-0.10,0.26,0.30
13.071,-0.12,0.06,-0.04,0.14
13.081,-0.10,0.04,-0.20,0.23
13.091,-0.02,0.07,-0.07,0.11
13.101,-0.03,0.06,0.06,0.09
13.111,0.01,0.00,-0.01,0.01
13.121,-0.01,0.01,-0.05,0.05
13.131,-0.01,0.02,-0.02,0.03
13.141,-0.00,0.01,0.03,0.03
13.151,-0.04,-0.00,0.04,0.05
13.161,-0.02,0.01,0.02,0.03
13.171,0.01,0.02,0.01,0.02
13.182,0.02,0.02,0.03,0.05
13.191,0.02,0.00,-0.01,0.02
13.202,0.01,-0.01,-0.01,0.02
13.212,-0.00,0.03,-0.00,0.03
13.222,0.00,0.00,0.03,0.03
13.232,0.00,-0.02,0.01,0.03
13.242,0.02,-0.03,0.01,0.04
13.252,0.02,-0.02,0.03,0.04
13.262,-0.01,-0.01,0.02,0.02
13.272,0.01,0.00,0.01,0.01
13.282,-0.00,-0.00,-0.02,0.02
13.292,0.02,-0.01,-0.02,0.03
13.302,0.02,-0.01,0.01,0.02
13.312,0.01,-0.01,-0.02,0.02
13.323,0.01,-0.01,-0.02,0.03
13.333,0.00,-0.01,-0.02,0.02
13.343,-0.01,0.01,-0.01,0.02
13.353,-0.02,0.03,0.01,0.04
13.363,-0.02,0.01,0.03,0.04
13.373,-0.02,0.02,0.01,0.03
13.383,-0.01,0.02,0.02,0.03
13.393,0.01,0.02,0.04,0.05
13.403,-0.01,0.01,0.03,0.04
13.413,-0.01,-0.00,-0.00,0.01
13.423,-0.02,-0.01,0.00,0.02
13.433,-0.02,0.01,0.01,0.02
13.443,-0.00,-0.00,0.01,0.01
13.453,-0.02,0.02,0.01,0.03
13.464,-0.00,0.02,0.02,0.03
13.473,-0.01,0.01,-0.01,0.01
13.484,0.02,0.01,0.00,0.02
13.494,0.03,-0.01,0.02,0.04
13.504,0.00,-0.02,-0.01,0.03
13.514,0.03,-0.02,-0.00,0.04
13.524,0.01,-0.01,0.00,0.01
13.534,-0.01,0.01,-0.04,0.04
13.544,0.01,-0.00,-0.02,0.02
13.554,0.02,-0.01,0.02,0.03
13.564,0.00,-0.01,0.04,0.04
13.574,0.02,0.01,-0.02,0.03
13.584,0.01,0.01,-0.03,0.04
13.594,-0.00,0.01,0.01,0.01
13.605,-0.02,0.02,0.01,0.02
13.614,-0.00,0.01,0.00,0.01
13.625,0.12,-0.08,0.20,0.24
13.635,-0.07,0.06,-0.00,0.09
13.645,-0.08,0.05,-0.20,0.22
13.655,-0.02,0.01,-0.12,0.12
13.665,-0.02,0.02,0.04,0.05
13.675,0.01,-0.04,0.10,0.11
13.685,-0.01,-0.03,0.09,0.09
13.695,-0.01,0.03,0.03,0.05
13.705,-0.01,0.04,0.03,0.05
13.715,-0.01,0.04,0.03,0.05
13.725,0.01,0.03,-0.02,0.04
13.735,0.00,0.00,-0.04,0.04
13.745,0.00,0.00,-0.02,0.02
13.755,0.01,0.00,0.01,0.02
13.766,-0.01,0.00,0.03,0.03
13.776,0.00,0.00,0.03,0.03
13.786,0.00,-0.00,0.03,0.03
13.796,-0.01,-0.01,0.04,0.04
13.806,-0.01,-0.01,0.02,0.03
13.816,0.01,-0.03,0.01,0.03
13.826,0.03,-0.04,-0.01,0.06
13.836,0.02,-0.03,-0.03,0.05
13.846,0.01,-0.02,-0.05,0.06
13.856,0.01,-0.02,-0.05,0.05
13.866,0.01,-0.01,-0.01,0.02
13.876,-0.01,-0.01,0.00,0.02
13.886,-0.03,0.01,-0.00,0.03
13.896,-0.01,0.01,0.03,0.04
13.907,-0.00,0.00,0.03,0.03
13.917,-0.01,0.02,0.05,0.05
13.927,-0.03,0.04,0.05,0.07
13.937,-0.03,0.02,-0.01,0.03
13.947,-0.03,0.01,-0.08,0.08
13.957,-0.02,0.01,-0.06,0.06
13.967,-0.01,0.00,-0.00,0.01
13.977,-0.02,-0.00,0.04,0.05
13.987,-0.03,0.03,0.06,0.07
13.997,-0.03,0.02,0.03,0.04
14.007,-0.01,0.02,0.04,0.04
14.017,-0.01,0.01,0.03,0.04
14.027,-0.02,0.01,-0.00,0.02
14.038,-0.02,0.01,-0.01,0.02
14.048,-0.00,0.00,0.02,0.02
14.058,0.01,-0.00,0.02,0.02
14.068,0.01,-0.02,0.01,0.02
14.078,0.01,-0.02,0.01,0.02
14.088,-0.00,-0.01,-0.01,0.02
14.098,0.00,-0.02,0.02,0.03
14.108,-0.01,-0.02,-0.01,0.02
14.118,0.00,-0.04,-0.02,0.04
14.128,0.03,-0.02,-0.00,0.04
14.138,0.02,0.00,-0.02,0.03
14.148,0.03,-0.00,-0.03,0.04
14.158,0.01,0.00,-0.03,0.03
14.169,0.02,-0.01,-0.01,0.02
14.178,0.02,-0.01,0.02,0.03
14.189,-0.02,0.01,0.01,0.02
14.199,-0.03,0.01,0.00,0.03
14.209,-0.03,0.02,0.02,0.04
14.219,-0.04,0.02,0.02,0.05
14.229,-0.03,0.02,0.03,0.05
14.239,-0.01,0.01,0.02,0.02
14.249,-0.01,0.00,-0.00,0.01
14.259,-0.02,0.01,-0.00,0.03
14.269,-0.03,0.02,0.02,0.04
14.279,0.00,0.01,0.01,0.01
14.289,-0.00,0.02,0.02,0.02
14.299,-0.01,0.02,0.00,0.02
14.309,-0.01,0.01,0.01,0.02
14.319,-0.01,-0.01,0.04,0.04
14.329,-0.01,-0.02,0.01,0.02
14.339,-0.01,-0.00,0.01,0.01
14.350,-0.01,-0.02,-0.01,0.02
14.360,0.01,-0.03,0.00,0.03
14.370,0.01,-0.01,0.02,0.03
14.380,0.01,-0.01,0.00,0.01
14.390,-0.00,0.02,-0.04,0.05
14.400,0.02,-0.01,-0.01,0.03
14.410,0.03,-0.01,0.01,0.03
14.420,0.02,-0.02,0.01,0.03
14.430,0.03,-0.01,-0.03,0.04
14.440,0.01,0.02,-0.05,0.05
14.450,-0.01,0.00,-0.04,0.04
14.460,-0.03,0.02,0.05,0.06
14.470,-0.01,0.02,0.06,0.06
14.481,-0.03,0.01,0.02,0.04
14.491,-0.03,0.01,-0.03,0.04
14.501,-0.02,-0.01,-0.03,0.04
14.511,0.01,-0.02,0.01,0.03
14.521,0.00,-0.02,0.04,0.04
14.531,-0.01,0.00,0.04,0.04
14.541,-0.03,0.04,0.04,0.06
14.551,-0.02,0.04,0.03,0.06
14.561,0.01,0.03,-0.02,0.03
14.571,0.01,0.02,-0.03,0.03
14.581,-0.01,0.01,-0.02,0.02
14.591,-0.00,-0.01,-0.00,0.01
14.601,-0.00,-0.01,0.00,0.01
14.611,0.01,0.01,0.02,0.02
14.621,-0.00,0.01,0.04,0.04
14.632,-0.01,-0.02,0.02,0.02
14.642,-0.00,-0.00,0.02,0.02
14.652,0.01,-0.01,0.04,0.04
14.662,-0.00,-0.02,0.02,0.02
14.672,0.02,-0.02,-0.02,0.04
14.682,0.03,-0.06,-0.06,0.08
14.692,0.00,-0.02,-0.05,0.05
14.702,-0.00,-0.02,-0.02,0.03
14.712,0.01,0.00,-0.01,0.01
14.722,0.01,0.01,-0.00,0.02
14.732,-0.01,0.01,0.01,0.01
14.742,-0.00,0.01,0.00,0.01
14.752,0.00,-0.00,0.02,0.02
14.762,-0.01,0.02,0.02,0.03
14.773,-0.04,0.01,0.02,0.04
14.783,-0.02,0.05,0.02,0.06
14.793,-0.02,0.04,-0.04,0.06
14.803,-0.02,-0.01,-0.02,0.03
14.813,-0.01,-0.01,0.04,0.04
14.823,-0.01,-0.01,0.06,0.06
14.833,0.02,-0.01,0.01,0.02
14.843,0.00,-0.01,-0.02,0.02
14.853,0.01,0.01,-0.01,0.02
14.863,-0.01,-0.01,0.01,0.02
14.873,-0.03,0.00,0.02,0.04
14.883,-0.01,0.02,0.01,0.02
14.893,0.01,0.04,0.04,0.05
14.903,0.01,0.00,0.03,0.03
14.914,0.02,-0.03,0.03,0.05
14.924,0.00,-0.02,0.02,0.03
14.934,0.01,-0.02,0.01,0.03
14.944,0.02,-0.01,-0.00,0.02
14.954,0.00,-0.01,-0.05,0.05
14.964,0.01,-0.01,-0.06,0.06
14.974,0.02,-0.01,-0.04,0.04
14.984,0.01,-0.00,-0.01,0.02
14.994,0.01,-0.00,-0.02,0.02
15.004,0.01,0.01,-0.01,0.02
15.014,0.00,0.02,0.01,0.03
15.024,0.01,0.01,0.03,0.03
15.034,-0.01,-0.01,0.02,0.02
15.044,-0.01,0.00,0.02,0.02
15.055,-0.02,0.01,0.02,0.03
15.065,-0.03,0.01,0.03,0.04
15.075,-0.04,0.01,0.04,0.06
15.085,-0.04,0.01,0.00,0.04
15.095,-0.01,-0.00,-0.01,0.01
15.105,-0.01,-0.02,-0.02,0.03
15.115,-0.01,-0.01,-0.00,0.02
15.125,-0.01,-0.01,0.02,0.02
15.135,0.00,0.00,-0.01,0.01
15.145,0.00,-0.00,0.00,0.00
15.155,0.01,0.00,0.01,0.02
15.165,-0.01,-0.00,0.01,0.02
15.175,0.01,-0.02,0.02,0.03
15.185,0.02,0.00,-0.00,0.02
15.195,0.00,-0.01,0.00,0.01
15.206,0.02,-0.01,-0.01,0.03
15.216,0.01,-0.02,-0.00,0.02
15.226,0.02,-0.03,0.01,0.04
15.236,0.00,-0.03,-0.02,0.04
15.246,-0.01,0.00,-0.03,0.03
15.256,0.00,-0.02,-0.05,0.05
15.266,-0.00,-0.00,-0.01,0.02
15.276,-0.00,0.00,0.02,0.02
15.286,-0.00,0.02,0.02,0.03
15.296,-0.03,0.03,0.04,0.06
15.306,-0.04,0.04,0.04,0.07
15.316,-0.02,0.03,0.07,0.08
15.327,-0.01,0.01,0.04,0.04
15.337,-0.01,-0.01,-0.01,0.02
15.346,-0.02,-0.02,-0.05,0.06
15.357,-0.01,-0.01,-0.06,0.06
15.367,0.02,-0.03,-0.02,0.04
15.377,-0.00,-0.04,0.02,0.05
15.387,-0.02,-0.03,0.06,0.06
15.397,-0.01,0.01,0.04,0.05
15.407,-0.00,0.01,0.00,0.01
15.417,0.01,0.04,-0.01,0.04
15.427,-0.02,0.03,0.00,0.03
15.437,-0.00,0.03,0.00,0.03
15.447,0.02,0.02,0.01,0.03
15.457,0.00,0.01,0.01,0.02
15.467,0.00,0.01,0.02,0.02
15.478,-0.01,-0.01,0.02,0.02
15.488,-0.00,-0.04,0.02,0.05
15.498,-0.01,-0.03,0.02,0.03
15.508,-0.00,0.01,0.03,0.03
15.518,0.01,-0.02,0.03,0.04
15.528,0.01,-0.02,0.00,0.03
15.538,0.01,-0.02,-0.04,0.05
15.548,0.02,-0.01,-0.05,0.06
15.558,0.02,-0.01,-0.04,0.05
15.568,0.01,0.00,-0.03,0.03
15.578,-0.00,0.01,-0.01,0.01
15.588,0.01,0.01,0.00,0.01
15.598,-0.00,0.02,0.01,0.02
15.608,0.01,0.03,0.05,0.06
15.619,0.01,0.02,0.05,0.06
15.629,-0.04,0.02,0.03,0.05
15.639,-0.04,0.03,-0.01,0.05
15.649,-0.01,0.02,-0.06,0.06
15.659,-0.02,0.01,-0.01,0.02
15.669,-0.04,0.00,0.06,0.07
15.679,-0.01,0.01,0.04,0.04
15.689,-0.01,0.01,0.02,0.02
15.699,-0.01,0.01,0.03,0.03
15.709,0.02,-0.00,0.02,0.03
15.719,0.01,-0.00,0.01,0.01
15.729,-0.01,-0.01,-0.02,0.02
15.739,0.00,-0.00,-0.05,0.05
15.749,0.01,0.00,-0.01,0.01
15.759,0.02,0.01,0.04,0.04
15.769,0.00,-0.01,0.03,0.03
15.780,0.00,-0.01,0.00,0.01
15.790,0.00,-0.02,0.01,0.02
15.800,-0.00,-0.02,0.02,0.03
15.810,-0.00,-0.02,-0.01,0.02
15.820,0.01,-0.02,-0.02,0.03
15.830,0.02,-0.01,-0.01,0.03
15.840,-0.00,0.00,0.01,0.01
15.850,0.01,0.02,-0.02,0.03
15.860,0.02,0.03,-0.00,0.03
15.870,-0.00,0.03,0.01,0.03
15.880,-0.00,0.01,0.01,0.01
15.890,0.02,0.01,0.00,0.02
15.900,0.01,-0.00,0.01,0.01
15.910,-0.01,-0.01,0.00,0.02
15.921,-0.02,0.00,0.01,0.02
15.930,-0.02,0.01,-0.01,0.02
15.941,-0.03,0.02,0.01,0.03
15.951,0.01,0.03,0.02,0.04
15.961,0.01,0.01,0.02,0.03
15.971,-0.02,0.01,0.00,0.02
15.981,-0.00,0.00,-0.02,0.02
15.991,-0.01,0.01,0.01,0.02
16.001,-0.00,0.01,0.02,0.02
16.011,-0.00,-0.01,0.00,0.01
16.021,-0.00,-0.03,-0.01,0.03
16.031,0.01,-0.00,0.00,0.01
16.041,-0.00,0.00,0.02,0.02
16.051,0.01,0.01,-0.02,0.03
16.062,-0.00,-0.00,-0.03,0.03
16.072,0.01,-0.01,-0.01,0.01
16.082,-0.01,-0.01,0.01,0.01
16.092,-0.02,0.00,0.02,0.03
16.102,-0.01,0.02,0.02,0.03
16.112,-0.01,0.02,0.02,0.03
16.122,0.01,0.00,0.02,0.02
16.132,0.02,-0.01,0.01,0.02
16.142,-0.01,0.01,-0.01,0.01
16.152,0.02,-0.01,-0.04,0.05
16.162,0.01,-0.01,0.01,0.02
16.172,0.01,0.00,0.02,0.03
16.182,-0.01,0.01,-0.01,0.02
16.192,-0.03,0.01,-0.01,0.04
16.203,-0.01,0.02,0.03,0.04
16.212,-0.01,0.01,0.05,0.05
16.223,-0.01,0.01,0.03,0.04
16.233,-0.02,-0.00,-0.03,0.04
16.243,0.00,-0.00,-0.05,0.05
16.253,0.02,-0.00,0.02,0.03
16.263,-0.02,-0.02,0.05,0.06
16.273,-0.00,-0.04,0.04,0.06
16.283,-0.01,-0.02,0.02,0.03
16.293,0.02,0.01,-0.01,0.02
16.303,0.02,0.02,-0.04,0.05
16.313,-0.01,0.02,-0.05,0.06
16.323,-0.00,0.04,-0.02,0.05
16.333,-0.01,0.02,0.02,0.03
16.344,-0.01,0.04,0.05,0.06
16.354,-0.01,0.02,0.06,0.07
16.364,-0.00,0.01,0.06,0.06
16.374,-0.02,-0.02,0.04,0.05
16.384,-0.02,-0.02,0.01,0.03
16.394,-0.02,-0.03,0.02,0.03
16.404,-0.01,-0.02,-0.01,0.03
16.414,0.01,-0.01,-0.01,0.02
16.424,0.02,-0.03,-0.02,0.04
16.434,-0.00,-0.02,-0.04,0.04
16.444,0.02,-0.01,-0.04,0.04
16.454,0.00,-0.02,-0.03,0.04
16.464,0.01,0.00,-0.04,0.04
16.474,-0.01,-0.01,-0.01,0.02
16.484,0.00,-0.01,-0.01,0.01
16.494,0.00,0.03,-0.00,0.03
16.505,-0.02,0.03,0.03,0.04
16.515,-0.05,0.03,0.06,0.08
16.525,-0.03,0.03,0.02,0.04
16.535,-0.00,-0.00,-0.06,0.06
16.545,-0.01,-0.02,-0.03,0.03
16.555,-0.01,-0.01,0.02,0.03
16.565,-0.01,0.01,0.03,0.03
16.575,-0.02,0.03,0.02,0.04
16.585,-0.01,0.04,0.02,0.05
16.595,-0.01,0.01,0.04,0.04
16.605,-0.03,0.00,0.04,0.05
16.615,-0.02,0.01,0.01,0.03
16.625,0.01,0.00,0.00,0.02
16.635,-0.01,0.01,0.03,0.03
16.646,-0.01,-0.01,0.00,0.01
16.656,0.02,-0.03,-0.01,0.04
16.666,0.01,-0.03,-0.00,0.03
16.676,0.02,-0.02,0.00,0.02
16.686,-0.02,-0.01,0.01,0.02
16.696,-0.02,0.01,0.00,0.02
16.706,0.01,0.02,-0.01,0.02
16.716,0.03,-0.01,0.01,0.04
16.726,0.01,-0.02,-0.02,0.03
16.736,0.02,-0.01,-0.03,0.04
16.746,0.01,-0.00,-0.01,0.01
16.756,0.00,-0.00,0.00,0.00
16.766,-0.01,-0.00,0.01,0.02
16.776,-0.01,0.00,0.02,0.02
16.787,-0.01,0.01,0.00,0.01
16.796,-0.00,0.01,-0.01,0.01
16.807,-0.01,0.01,0.01,0.02
16.817,-0.02,0.01,0.02,0.03
16.827,-0.03,0.02,0.02,0.04
16.837,-0.03,0.02,0.01,0.04
16.847,-0.01,0.01,-0.00,0.01
16.857,0.01,0.00,0.03,0.03
16.867,-0.00,0.01,0.02,0.02
16.877,0.01,0.01,0.01,0.01
16.887,0.02,-0.00,-0.01,0.02
16.897,0.01,0.01,-0.01,0.02
16.907,-0.01,0.00,-0.03,0.03
16.917,-0.01,-0.02,-0.01,0.03
16.927,-0.02,-0.02,0.02,0.03
16.938,-0.02,0.00,0.04,0.04
16.948,-0.01,-0.01,0.01,0.02
16.958,0.01,-0.00,-0.01,0.02
16.968,0.00,-0.00,0.01,0.01
16.978,0.02,-0.00,0.02,0.03
16.988,0.01,0.00,0.00,0.01
16.999,-0.00,0.00,-0.03,0.03
17.008,-0.01,0.01,-0.01,0.02
17.018,-0.02,0.01,-0.02,0.03
17.028,-0.00,0.01,0.03,0.03
17.038,0.01,0.00,0.03,0.03
17.048,0.01,0.01,0.01,0.01
17.058,0.00,-0.01,-0.01,0.01
17.069,-0.01,-0.02,-0.02,0.03
17.079,0.00,-0.01,-0.03,0.03
17.089,-0.00,-0.01,-0.01,0.02
17.099,-0.02,-0.01,0.02,0.02
17.109,-0.01,0.02,0.04,0.04
17.119,-0.03,0.02,0.02,0.04
17.129,-0.02,-0.00,-0.05,0.05
17.139,0.01,-0.00,-0.05,0.05
17.149,0.02,-0.02,0.01,0.03
17.159,-0.00,-0.04,0.06,0.07
17.169,0.01,-0.03,0.06,0.06
17.179,0.02,-0.02,0.02,0.03
17.189,-0.00,0.02,-0.02,0.03
17.199,-0.00,0.03,-0.02,0.04
17.210,-0.00,0.03,-0.01,0.04
17.219,-0.01,0.04,0.01,0.04
17.230,-0.02,0.06,0.03,0.07
17.240,-0.02,0.05,0.06,0.08
17.250,0.01,0.02,0.05,0.06
17.260,-0.01,-0.02,0.03,0.03
17.270,0.01,-0.04,-0.01,0.04
17.280,0.02,-0.05,-0.03,0.06
17.290,0.00,-0.03,-0.01,0.04
17.300,0.02,-0.02,0.00,0.03
17.310,0.03,-0.02,-0.01,0.03
17.320,0.02,-0.01,-0.02,0.02
17.331,0.02,-0.01,-0.04,0.04
17.340,0.01,-0.01,-0.02,0.02
17.350,0.01,-0.02,-0.01,0.02
17.361,-0.00,-0.00,-0.01,0.01
17.371,-0.01,-0.01,-0.02,0.02
17.381,-0.01,-0.01,0.00,0.01
17.391,-0.02,0.01,0.03,0.04
17.401,-0.04,0.03,0.04,0.06
17.411,-0.03,0.05,0.05,0.08
17.421,-0.01,0.03,-0.01,0.03
17.431,0.01,0.00,-0.05,0.05
17.441,-0.02,-0.01,-0.03,0.03
17.451,-0.00,-0.01,0.02,0.03
17.461,-0.00,-0.02,-0.01,0.02
17.471,0.00,-0.02,-0.02,0.03
17.481,-0.01,0.01,-0.01,0.02
17.491,-0.01,0.02,0.01,0.03
17.501,-0.02,0.03,0.06,0.07
17.512,-0.04,0.02,0.06,0.08
17.522,-0.01,0.02,0.02,0.03
17.532,-0.00,0.01,0.01,0.02
17.542,0.00,-0.02,0.00,0.02
17.552,-0.00,-0.03,0.02,0.04
17.562,0.02,-0.05,-0.00,0.05
17.572,-0.01,-0.02,-0.02,0.03
17.582,-0.01,-0.02,-0.02,0.03
17.592,0.00,-0.02,-0.01,0.02
17.602,-0.01,-0.01,0.01,0.02
17.612,0.01,-0.01,-0.02,0.03
17.622,0.02,-0.00,-0.03,0.04
17.633,0.02,-0.02,-0.03,0.04
17.642,0.01,0.00,-0.03,0.03
17.653,0.00,0.01,-0.00,0.01
17.663,-0.00,0.01,0.02,0.02
17.673,-0.01,0.02,0.01,0.02
17.683,-0.01,0.02,0.01,0.02
17.693,-0.03,0.02,0.01,0.04
17.703,-0.02,0.02,0.02,0.04
17.713,-0.02,0.01,0.05,0.05
17.723,-0.01,0.03,0.03,0.05
17.733,-0.02,0.02,0.02,0.04
17.743,-0.02,0.01,0.01,0.03
17.753,-0.02,0.00,0.00,0.02
17.763,-0.01,0.01,0.00,0.01
17.773,0.00,-0.03,-0.04,0.05
17.783,0.02,-0.02,-0.02,0.03
17.794,0.02,0.00,0.00,0.02
17.804,-0.00,0.00,-0.01,0.01
17.814,0.02,-0.00,0.02,0.02
17.824,0.02,-0.02,0.02,0.04
17.834,0.01,-0.03,0.01,0.03
17.844,-0.00,-0.02,0.00,0.02
17.854,0.01,0.01,-0.02,0.03
17.864,0.02,-0.01,-0.02,0.03
17.874,0.01,-0.01,-0.01,0.01
17.884,0.03,0.00,-0.04,0.04
17.894,0.01,-0.00,-0.02,0.02
17.904,0.00,-0.01,-0.03,0.03
17.914,-0.01,-0.00,-0.01,0.01
17.924,0.01,-0.01,0.03,0.04
17.935,0.00,-0.02,0.00,0.02
17.945,-0.01,-0.03,0.01,0.03
17.955,-0.01,0.00,-0.01,0.02
17.965,-0.02,0.02,-0.01,0.03
17.975,-0.01,0.02,0.01,0.02
17.985,-0.02,0.04,0.07,0.08
17.995,0.08,-0.07,0.32,0.34
18.005,-0.13,0.09,-0.05,0.17
18.015,-0.07,0.03,-0.26,0.27
18.025,-0.01,0.03,-0.12,0.12
18.035,-0.01,-0.01,0.10,0.10
18.045,0.00,-0.06,0.12,0.13
18.056,0.00,-0.01,0.05,0.05
18.065,-0.00,0.03,-0.02,0.04
18.076,-0.03,0.03,-0.04,0.05
18.086,-0.02,0.02,-0.01,0.03
18.096,0.02,0.00,-0.01,0.02
18.106,-0.00,0.01,-0.01,0.01
18.116,0.00,0.03,-0.00,0.03
18.126,0.01,0.02,0.03,0.04
18.136,0.00,0.01,0.03,0.03
18.146,-0.02,-0.01,0.03,0.04
18.156,-0.02,-0.03,0.02,0.04
18.166,-0.02,0.01,0.03,0.04
18.176,-0.01,-0.01,0.03,0.03
18.186,0.01,-0.02,0.00,0.02
18.196,0.01,-0.03,-0.03,0.05
18.207,0.01,-0.02,-0.02,0.03
18.217,-0.01,-0.02,-0.02,0.03
18.226,0.01,0.01,-0.02,0.02
18.237,-0.00,-0.00,-0.00,0.00
18.247,-0.02,0.01,0.01,0.03
18.257,-0.00,0.00,0.02,0.02
18.267,-0.01,0.01,0.01,0.02
18.277,-0.00,0.02,0.01,0.03
18.287,0.00,0.02,0.03,0.04
18.297,-0.02,0.03,0.01,0.04
18.307,-0.00,0.02,-0.04,0.05
18.317,-0.02,0.03,-0.05,0.06
18.327,0.00,-0.02,-0.01,0.02
18.337,0.03,-0.01,0.07,0.07
18.347,0.01,-0.00,0.03,0.03
18.357,-0.01,0.00,-0.00,0.01
18.368,-0.01,0.02,0.01,0.03
18.378,0.00,0.01,0.02,0.03
18.388,-0.02,-0.01,0.01,0.02
18.398,-0.02,-0.00,-0.00,0.02
18.408,-0.00,0.02,0.03,0.03
18.418,0.01,0.02,0.04,0.05
18.428,0.02,-0.03,0.04,0.05
18.438,0.00,-0.02,0.04,0.04
18.448,-0.02,-0.03,0.02,0.04
18.458,0.00,-0.01,0.01,0.01
18.468,-0.00,-0.01,0.01,0.02
18.478,-0.01,-0.00,-0.04,0.04
18.488,0.00,-0.01,-0.04,0.05
18.499,0.03,-0.00,-0.02,0.04
18.509,-0.00,-0.02,-0.01,0.02
18.519,0.01,-0.03,-0.03,0.04
18.529,-0.01,-0.00,-0.02,0.02
18.539,-0.03,0.02,0.01,0.04
18.549,-0.01,0.02,0.02,0.03
18.559,-0.02,0.03,0.05,0.06
18.569,-0.01,0.02,-0.00,0.02
18.579,-0.02,0.01,-0.01,0.02
18.589,-0.00,0.00,0.01,0.01
18.599,-0.01,0.00,0.00,0.01
18.609,-0.02,0.01,-0.02,0.03
18.619,-0.01,0.01,-0.01,0.01
18.629,-0.01,0.00,0.01,0.02
18.639,-0.01,0.00,0.01,0.02
18.649,-0.01,0.00,0.02,0.03
18.660,-0.01,-0.01,0.02,0.02
18.670,0.01,0.00,0.03,0.03
18.680,0.02,-0.02,0.02,0.04
18.690,0.00,-0.01,-0.00,0.01
18.700,-0.00,-0.01,0.01,0.01
18.710,-0.00,-0.03,-0.01,0.03
18.720,0.02,-0.02,-0.01,0.03
18.730,0.01,-0.03,-0.02,0.03
18.740,-0.01,-0.01,-0.01,0.02
18.750,0.01,-0.01,0.01,0.01
18.760,0.02,-0.00,0.01,0.02
18.770,0.01,-0.01,0.01,0.02
18.780,-0.01,0.00,-0.02,0.03
18.791,-0.01,0.01,-0.03,0.04
18.801,-0.00,0.03,0.01,0.03
18.811,-0.02,0.02,0.04,0.04
18.821,-0.00,0.02,0.02,0.02
18.831,-0.02,0.00,-0.04,0.05
18.841,-0.02,-0.01,-0.03,0.04
18.851,0.01,-0.01,0.02,0.02
18.861,0.02,0.00,0.04,0.04
18.871,-0.01,-0.02,0.06,0.06
18.881,-0.01,-0.03,0.03,0.05
18.891,0.00,-0.00,0.03,0.03
18.901,0.01,0.01,-0.01,0.02
18.911,-0.00,0.03,-0.05,0.06
18.922,-0.00,0.02,-0.03,0.04
18.931,-0.01,0.02,0.01,0.02
18.942,-0.01,0.03,0.03,0.04
18.952,-0.02,0.04,0.08,0.10
18.962,-0.01,0.01,0.06,0.06
18.972,-0.01,-0.02,0.04,0.05
18.982,0.02,-0.04,0.01,0.05
18.992,0.01,-0.04,0.01,0.04
19.002,0.01,-0.06,-0.04,0.07
19.012,0.01,-0.04,-0.02,0.04
19.022,0.02,-0.02,-0.02,0.04
19.032,0.02,0.01,-0.03,0.04
19.042,-0.00,-0.00,0.00,0.00
19.052,0.01,-0.01,-0.00,0.01
19.062,-0.00,-0.00,-0.01,0.01
19.072,0.00,0.02,-0.02,0.03
19.083,0.00,0.02,0.00,0.02
19.093,-0.02,0.02,0.02,0.04
19.103,-0.01,0.00,0.03,0.03
19.113,-0.01,0.01,0.03,0.03
19.123,-0.00,0.01,0.02,0.02
19.133,-0.00,0.00,-0.06,0.06
19.143,-0.00,0.00,-0.08,0.08
19.153,-0.01,0.00,-0.02,0.02
19.163,-0.01,-0.02,0.04,0.04
19.173,-0.03,0.02,0.07,0.08
19.183,-0.03,0.01,0.03,0.05
19.193,-0.02,0.03,0.03,0.04
19.203,0.00,0.04,0.05,0.06
19.213,-0.01,0.01,0.05,0.05
19.224,0.01,-0.02,0.01,0.02
19.234,0.01,-0.02,0.00,0.02
19.244,0.01,-0.00,-0.02,0.02
19.254,-0.00,-0.01,-0.00,0.01
19.264,-0.01,-0.02,0.02,0.03
19.274,-0.02,-0.02,0.01,0.02
19.284,0.01,-0.01,-0.00,0.01
19.294,-0.00,0.01,0.00,0.01
19.304,-0.02,0.00,-0.02,0.03
19.314,0.02,-0.00,-0.03,0.04
19.324,0.01,-0.01,-0.01,0.02
19.334,0.02,-0.00,-0.02,0.03
19.344,0.02,0.01,-0.03,0.03
19.354,-0.00,0.01,0.00,0.01
19.364,0.01,0.01,0.03,0.03
19.375,0.00,0.01,0.02,0.02
19.385,-0.01,0.01,0.03,0.03
19.395,-0.02,0.02,0.00,0.03
19.405,-0.00,0.01,0.01,0.02
19.415,-0.02,0.01,-0.00,0.02
19.425,-0.02,-0.00,0.00,0.02
19.435,-0.02,0.02,0.01,0.03
19.445,-0.00,0.01,0.00,0.01
19.455,-0.00,-0.00,0.01,0.01
19.465,-0.00,-0.01,0.01,0.01
19.475,-0.01,-0.02,-0.00,0.02
19.485,0.01,-0.01,-0.01,0.02
19.495,0.00,0.00,0.01,0.01
19.506,0.00,0.00,0.02,0.02
19.516,0.01,-0.01,0.00,0.01
19.526,0.02,-0.01,-0.00,0.02
19.536,0.01,0.01,0.02,0.02
19.546,0.02,-0.01,-0.02,0.03
19.556,0.01,-0.01,-0.01,0.02
19.566,-0.01,-0.00,0.01,0.01
19.576,-0.01,-0.00,-0.00,0.01
19.586,0.00,0.01,-0.00,0.01
19.596,0.01,-0.00,0.02,0.02
19.606,0.00,0.00,0.03,0.03
19.616,-0.01,0.00,0.02,0.02
19.626,0.00,0.03,0.00,0.03
19.636,0.01,0.01,-0.01,0.01
19.647,0.00,-0.00,-0.02,0.02
19.657,-0.00,-0.00,0.01,0.01
19.667,-0.00,-0.00,-0.01,0.01
19.677,-0.01,-0.01,-0.03,0.03
19.687,0.00,0.00,-0.00,0.01
19.697,0.01,-0.01,0.04,0.04
19.707,0.00,-0.01,0.07,0.07
19.717,-0.02,-0.02,0.07,0.07
19.727,-0.01,0.02,0.04,0.05
19.737,-0.02,0.04,-0.02,0.05
19.747,-0.01,0.01,-0.02,0.03
19.757,0.01,0.01,-0.01,0.02
19.767,-0.01,0.03,0.01,0.03
19.777,-0.01,0.02,0.00,0.02
19.787,-0.00,0.01,0.01,0.01
19.798,0.00,0.01,0.03,0.03
19.808,-0.01,-0.04,0.03,0.05
19.818,0.00,-0.04,0.02,0.05
19.828,0.02,-0.04,0.02,0.05
19.838,0.02,-0.02,-0.00,0.03
19.848,-0.01,-0.01,-0.00,0.01
19.858,-0.01,0.00,-0.00,0.01
19.868,0.01,-0.00,-0.01,0.01
19.878,0.01,-0.00,-0.03,0.03
19.888,0.00,-0.01,-0.03,0.03
19.898,0.01,-0.00,-0.01,0.01
19.908,-0.00,0.01,-0.01,0.02
19.918,-0.01,0.02,0.03,0.04
19.928,-0.01,0.01,0.02,0.03
19.938,-0.01,0.03,0.03,0.04
19.949,-0.00,0.02,0.03,0.04
19.959,-0.02,0.02,0.04,0.05
19.969,-0.02,0.03,-0.03,0.05
19.979,-0.01,0.00,-0.07,0.07
19.989,-0.03,0.00,-0.01,0.03
19.999,-0.02,-0.01,0.05,0.06
20.009,0.00,-0.01,0.02,0.02
20.019,-0.02,0.00,0.01,0.02
20.029,-0.01,0.01,0.01,0.01
20.039,-0.00,-0.00,0.04,0.04
20.049,-0.02,-0.01,0.03,0.04
20.059,-0.02,0.00,-0.02,0.03
20.070,-0.01,0.00,0.02,0.02
20.079,-0.02,-0.01,0.02,0.03
20.090,0.01,-0.03,0.01,0.03
20.100,0.01,-0.03,-0.00,0.03
20.110,0.02,-0.01,-0.01,0.03
20.120,0.01,-0.02,0.01,0.02
20.130,-0.00,0.00,0.01,0.01
20.140,0.00,-0.00,-0.01,0.01
20.150,-0.00,0.01,-0.00,0.01
20.160,0.01,0.01,-0.01,0.01
20.170,0.02,0.01,-0.01,0.02
20.180,0.02,0.00,-0.00,0.02
20.190,0.01,0.01,0.00,0.01
20.200,-0.01,-0.01,-0.01,0.02
20.211,-0.03,0.02,0.01,0.04
20.220,-0.03,0.03,0.02,0.05
20.231,-0.02,0.04,0.03,0.05
20.241,-0.03,0.02,0.06,0.07
20.251,-0.03,0.03,0.05,0.07
20.261,-0.01,0.03,0.02,0.03
20.271,0.00,-0.00,-0.01,0.01
20.281,0.01,-0.03,-0.00,0.03
20.291,0.02,-0.03,-0.02,0.04
20.301,0.01,-0.03,-0.04,0.05
20.311,0.00,0.00,-0.04,0.04
20.321,-0.01,-0.00,-0.02,0.03
20.332,-0.03,0.01,0.01,0.03
20.341,-0.01,0.01,0.02,0.02
20.351,-0.00,-0.01,0.01,0.02
20.361,0.00,-0.01,-0.01,0.01
20.372,0.01,-0.00,-0.01,0.02
20.381,-0.01,-0.00,0.01,0.02
20.392,0.02,-0.00,-0.00,0.02
20.402,0.02,-0.02,0.02,0.03
20.412,-0.00,-0.01,0.01,0.01
20.422,0.01,0.01,-0.02,0.03
20.432,0.02,0.00,-0.02,0.03
20.442,0.02,-0.02,-0.02,0.03
20.452,-0.00,-0.00,-0.00,0.00
20.462,-0.00,0.02,-0.01,0.02
20.472,-0.01,0.00,-0.04,0.04
20.482,-0.01,0.00,-0.00,0.01
20.492,-0.00,0.02,0.01,0.02
20.502,-0.03,0.02,0.03,0.04
20.513,-0.03,0.03,0.05,0.06
20.523,-0.03,0.04,0.06,0.07
20.533,-0.05,0.03,0.06,0.08
20.543,-0.03,0.01,-0.01,0.04
20.553,-0.02,-0.00,-0.04,0.04
20.563,0.02,-0.02,-0.01,0.03
20.573,0.00,-0.02,0.02,0.03
20.583,0.01,-0.01,0.04,0.04
20.593,0.01,-0.01,0.04,0.04
20.603,0.01,-0.00,-0.02,0.02
20.613,0.00,0.01,-0.04,0.04
20.623,0.01,0.01,-0.06,0.06
20.633,0.02,0.01,-0.02,0.03
20.643,0.02,0.03,0.02,0.04
20.654,0.01,0.03,0.03,0.05
20.664,0.00,0.02,0.05,0.06
20.674,-0.00,0.00,0.05,0.05
20.684,-0.00,-0.03,0.06,0.07
20.694,-0.03,-0.04,0.02,0.05
20.704,-0.01,-0.04,0.00,0.04
20.714,0.02,-0.04,-0.01,0.04
20.724,0.03,-0.02,-0.01,0.04
20.734,0.02,-0.01,-0.03,0.04
20.744,0.03,0.02,-0.04,0.05
20.754,0.03,-0.01,-0.03,0.04
20.764,-0.01,-0.01,-0.04,0.04
20.774,0.01,-0.00,-0.02,0.02
20.784,0.00,-0.01,0.01,0.01
20.795,0.00,-0.01,0.03,0.04
20.804,0.00,0.01,0.03,0.03
20.815,0.00,0.01,0.03,0.03
20.825,-0.01,0.02,0.03,0.04
20.835,-0.03,0.04,0.01,0.05
20.845,-0.02,0.00,-0.04,0.04
20.855,0.01,-0.02,-0.05,0.05
20.865,-0.02,0.00,0.01,0.02
20.875,-0.02,0.01,0.06,0.07
20.885,-0.01,0.02,0.05,0.06
20.895,-0.02,0.01,0.01,0.02
20.905,0.01,0.02,0.01,0.02
20.915,0.02,-0.01,0.01,0.02
20.925,0.00,-0.00,-0.01,0.01
20.935,-0.00,-0.00,-0.02,0.02
20.945,-0.01,0.01,-0.01,0.02
20.956,-0.01,0.01,0.03,0.03
20.966,-0.02,-0.02,0.02,0.04
20.976,0.01,-0.02,0.01,0.03
20.986,-0.01,-0.00,0.03,0.03
20.996,-0.02,0.00,0.02,0.03
21.006,-0.02,0.01,0.03,0.03
21.016,0.02,0.01,0.01,0.02
21.026,0.03,-0.03,-0.02,0.05
21.036,0.01,-0.02,-0.05,0.05
21.046,0.02,-0.01,-0.05,0.06
21.056,0.01,0.01,-0.01,0.01
21.066,-0.00,-0.00,0.01,0.01
21.076,0.01,-0.02,0.03,0.03
21.086,0.01,0.00,-0.00,0.01
21.097,0.02,0.01,-0.02,0.03
21.107,0.02,0.00,-0.02,0.03
21.117,0.00,0.01,0.00,0.01
21.127,0.01,-0.01,0.00,0.01
21.137,-0.01,-0.01,-0.02,0.02
21.147,0.00,-0.02,-0.02,0.03
21.157,-0.00,0.00,-0.01,0.01
21.167,-0.01,-0.01,-0.00,0.01
21.177,-0.00,0.02,0.00,0.02
21.187,0.01,0.01,0.03,0.03
21.197,-0.00,0.00,0.01,0.02
21.207,-0.02,0.01,0.00,0.02
21.218,0.01,0.01,-0.01,0.02
21.227,0.01,-0.01,-0.00,0.02
21.238,-0.00,-0.03,-0.01,0.03
21.248,0.01,-0.02,0.01,0.03
21.258,-0.00,-0.01,-0.00,0.01
21.268,0.00,0.01,0.00,0.01
21.278,0.02,0.00,-0.01,0.02
21.288,0.01,0.00,-0.01,0.01
21.298,0.00,0.00,0.00,0.01
21.308,0.00,-0.01,0.01,0.02
21.318,0.01,0.01,-0.02,0.02
21.328,0.00,0.01,0.01,0.01
21.338,0.01,-0.00,0.03,0.03
21.348,0.01,-0.02,0.01,0.03
21.358,0.00,0.00,-0.01,0.01
21.368,-0.03,0.03,-0.02,0.05
21.379,-0.02,0.01,0.01,0.02
21.389,-0.00,-0.00,0.02,0.03
21.399,0.01,0.00,0.01,0.01
21.409,-0.01,-0.01,-0.03,0.03
21.419,-0.01,-0.00,-0.05,0.05
21.429,-0.00,-0.00,-0.01,0.01
21.439,0.01,-0.03,0.04,0.05
21.449,-0.00,-0.04,0.04,0.06
21.459,0.01,-0.03,0.05,0.06
21.469,-0.01,0.01,0.03,0.04
21.479,-0.03,0.04,0.00,0.05
21.489,-0.02,0.06,0.01,0.07
21.499,-0.02,0.06,0.01,0.06
21.509,-0.02,0.03,0.04,0.06
21.520,-0.01,0.04,0.05,0.06
21.530,-0.00,0.05,0.03,0.06
21.540,-0.01,-0.00,0.04,0.04
21.550,-0.04,-0.01,0.04,0.05
21.560,-0.01,-0.02,0.02,0.03
21.570,-0.01,-0.03,-0.01,0.03
21.580,-0.00,-0.01,-0.01,0.02
21.590,0.00,-0.02,-0.01,0.02
21.600,-0.00,-0.02,-0.00,0.02
21.610,0.02,-0.03,-0.01,0.04
21.620,0.01,-0.03,-0.06,0.06
21.630,0.03,-0.02,-0.02,0.04
21.640,0.02,-0.02,-0.01,0.03
21.651,0.01,-0.00,-0.03,0.03
21.660,-0.01,-0.01,-0.02,0.02
21.670,-0.03,0.02,0.03,0.05
21.681,-0.01,0.02,0.04,0.05
21.691,-0.02,0.01,0.03,0.03
21.701,-0.01,-0.00,-0.01,0.01
21.711,-0.01,-0.00,-0.09,0.09
21.721,-0.00,-0.02,-0.07,0.07
21.731,-0.01,-0.03,-0.00,0.03
21.741,-0.00,-0.00,0.05,0.05
21.751,-0.02,0.02,0.06,0.07
21.761,-0.02,0.02,0.10,0.10
21.771,-0.00,0.03,0.09,0.10
21.781,-0.04,0.05,-0.05,0.08
21.791,0.01,-0.00,0.01,0.01
21.801,-0.02,0.02,0.02,0.04
21.811,0.00,-0.02,0.01,0.02
21.822,0.01,-0.03,-0.02,0.03
21.832,0.01,-0.01,-0.02,0.03
21.842,-0.00,-0.01,-0.00,0.01
21.852,-0.03,-0.00,0.03,0.04
21.862,0.01,0.00,0.03,0.03
21.872,0.00,0.01,0.00,0.01
21.882,-0.01,0.01,0.01,0.02
21.892,0.01,0.01,0.01,0.02
21.902,0.00,-0.02,0.01,0.03
21.912,0.03,-0.03,-0.01,0.04
21.922,0.02,-0.02,-0.03,0.04
21.932,-0.00,0.01,-0.02,0.02
21.942,-0.01,0.00,0.01,0.02
21.952,-0.02,-0.00,0.04,0.05
21.963,-0.00,0.00,0.03,0.03
21.973,-0.01,-0.01,0.01,0.01
21.983,0.01,0.01,0.00,0.01
21.993,-0.01,-0.00,0.00,0.01
22.003,0.02,-0.02,-0.02,0.03
22.013,0.02,-0.02,-0.04,0.05
22.023,-0.00,-0.00,-0.02,0.02
22.033,-0.02,-0.00,0.03,0.03
22.043,-0.03,0.02,0.05,0.06
22.053,-0.02,0.02,0.05,0.06
22.063,-0.03,0.03,0.02,0.05
22.073,-0.02,0.01,0.02,0.03
22.083,0.00,-0.00,0.01,0.01
22.093,0.00,-0.01,-0.00,0.01
22.104,0.02,-0.01,-0.01,0.02
22.114,-0.01,-0.01,-0.01,0.02
22.124,-0.01,0.01,-0.03,0.03
22.134,0.00,-0.00,0.02,0.02
22.144,-0.01,-0.01,0.01,0.02
22.154,-0.01,0.00,-0.01,0.02
22.164,0.01,0.00,-0.01,0.01
22.174,-0.00,0.00,-0.01,0.01
22.184,-0.00,-0.01,-0.02,0.02
22.194,0.01,-0.01,0.00,0.02
22.204,0.00,-0.01,-0.01,0.01
22.214,0.01,0.00,-0.01,0.01
22.224,-0.00,-0.00,-0.01,0.01
22.234,-0.01,0.01,-0.00,0.02
22.244,-0.03,0.00,0.04,0.05
22.254,-0.02,0.01,0.04,0.04
22.265,-0.01,-0.01,0.01,0.02
22.275,-0.01,-0.02,-0.05,0.05
22.285,0.01,-0.03,-0.08,0.08
22.295,0.01,-0.03,-0.02,0.04
22.305,0.02,-0.02,0.04,0.05
22.315,0.02,-0.01,0.02,0.03
22.325,0.01,0.00,0.03,0.04
22.335,0.00,0.02,0.02,0.03
22.345,-0.02,0.02,-0.02,0.04
22.355,-0.00,0.04,-0.03,0.05
22.365,-0.02,0.04,0.01,0.04
22.375,-0.02,0.03,0.02,0.04
22.386,0.00,0.00,0.04,0.04
22.396,0.01,-0.00,0.04,0.04
22.406,0.01,-0.02,0.02,0.03
22.416,-0.00,-0.03,-0.00,0.03
22.426,-0.01,-0.01,0.02,0.02
22.436,0.00,-0.02,0.02,0.03
22.446,-0.01,-0.04,0.02,0.04
22.456,0.01,-0.01,-0.01,0.02
22.466,0.02,-0.01,-0.04,0.05
22.476,0.02,-0.01,-0.00,0.03
22.486,0.02,0.00,0.01,0.02
22.496,0.01,0.01,-0.01,0.02
22.506,0.01,0.01,-0.02,0.02
22.516,0.01,0.00,-0.01,0.01
22.526,-0.01,-0.00,-0.00,0.01
22.536,0.01,0.01,0.03,0.03
22.547,0.08,-0.05,0.20,0.22
22.557,-0.08,0.03,0.02,0.09
22.567,-0.08,0.06,-0.19,0.22
22.577,-0.01,0.03,-0.16,0.16
22.587,-0.02,0.01,0.01,0.03
22.597,-0.01,-0.03,0.12,0.13
22.607,-0.02,0.01,0.07,0.07
22.617,-0.02,0.05,0.01,0.05
22.627,-0.01,0.05,0.02,0.06
22.637,-0.02,0.01,0.04,0.04
22.647,-0.02,-0.01,0.03,0.03
22.657,-0.00,0.00,-0.02,0.02
22.668,0.03,0.00,-0.03,0.04
22.678,0.01,0.02,-0.01,0.02
22.688,-0.01,-0.01,0.00,0.01
22.698,0.00,-0.01,0.02,0.02
22.708,0.01,-0.01,0.03,0.03
22.718,0.01,-0.02,0.02,0.03
22.728,0.01,-0.01,0.00,0.02
22.738,0.01,-0.02,-0.02,0.03
22.748,0.01,-0.02,-0.03,0.04
22.758,0.01,-0.01,-0.03,0.03
22.768,0.01,0.00,-0.01,0.02
22.778,0.01,0.00,-0.01,0.01
22.788,-0.00,0.00,-0.02,0.02
22.798,-0.00,-0.00,-0.01,0.01
22.808,0.00,0.00,0.01,0.01
22.818,-0.01,-0.00,0.01,0.01
22.829,-0.01,0.01,-0.00,0.02
22.839,-0.03,0.01,0.00,0.04
22.849,-0.02,0.00,0.02,0.02
22.859,-0.03,0.02,0.02,0.04
22.869,-0.03,0.02,0.03,0.05
22.879,-0.02,0.02,-0.00,0.03
22.889,-0.02,0.02,-0.00,0.02
22.899,-0.02,0.00,-0.02,0.02
22.909,-0.01,-0.00,-0.01,0.01
22.919,-0.01,0.00,0.00,0.01
22.929,-0.01,0.00,0.02,0.02
22.939,-0.00,0.01,0.00,0.01
22.949,0.00,0.01,0.02,0.02
22.959,-0.00,0.01,0.03,0.03
22.970,0.01,-0.00,0.01,0.02
22.980,0.03,-0.01,-0.00,0.04
22.990,0.01,-0.03,-0.01,0.03
23.000,0.00,-0.00,-0.02,0.02
23.010,-0.02,-0.01,-0.02,0.02
23.020,-0.00,-0.03,0.00,0.03
23.030,-0.01,-0.02,0.03,0.03
23.040,-0.00,0.01,-0.01,0.01
23.050,0.00,0.01,-0.03,0.03
23.060,0.01,0.02,-0.02,0.03
23.070,0.00,0.01,0.01,0.01
23.080,-0.01,0.00,0.01,0.01
23.091,-0.03,0.00,0.02,0.04
23.100,-0.03,-0.02,-0.02,0.04
23.111,0.00,-0.01,-0.01,0.01
23.121,0.01,-0.02,0.01,0.02
23.131,-0.01,-0.02,0.06,0.06
23.141,0.01,0.00,0.09,0.09
23.151,0.00,0.00,0.02,0.02
23.161,-0.01,0.00,-0.02,0.02
23.171,0.00,0.02,-0.05,0.05
23.181,-0.01,0.02,-0.03,0.04
23.191,-0.03,0.00,0.00,0.03
23.201,-0.03,0.01,0.03,0.04
23.211,-0.01,0.02,0.04,0.05
23.221,-0.01,0.02,0.05,0.05
23.231,-0.01,0.00,0.06,0.06
23.241,-0.00,-0.00,0.07,0.07
23.252,-0.01,-0.02,0.03,0.03
23.261,0.01,-0.04,-0.01,0.04
23.272,0.01,-0.03,-0.02,0.04
23.282,0.03,-0.04,-0.05,0.06
23.292,0.01,-0.04,-0.06,0.07
23.302,-0.01,-0.02,-0.05,0.05
23.312,-0.00,-0.01,-0.04,0.04
23.322,-0.01,0.01,0.01,0.02
23.332,0.00,0.01,0.02,0.03
23.342,0.01,0.02,0.02,0.03
23.352,-0.02,0.03,0.02,0.04
23.362,-0.02,0.02,0.02,0.03
23.372,-0.00,-0.00,0.03,0.03
23.382,-0.01,-0.00,0.02,0.02
23.392,0.01,0.01,-0.08,0.08
23.403,-0.00,0.02,-0.09,0.09
23.413,-0.02,-0.00,-0.03,0.04
23.423,-0.02,-0.01,0.06,0.06
23.433,-0.02,0.02,0.06,0.07
23.443,-0.02,0.02,0.02,0.03
23.453,-0.03,0.02,0.03,0.05
23.463,-0.02,0.05,0.05,0.07
23.473,-0.01,0.00,0.04,0.04
23.483,-0.01,-0.01,0.01,0.02
23.493,-0.00,-0.00,-0.00,0.01
23.503,0.02,-0.00,-0.00,0.02
23.513,0.04,-0.02,-0.01,0.05
23.523,0.04,-0.05,-0.02,0.07
23.533,0.01,-0.03,-0.03,0.04
23.544,-0.01,-0.02,-0.02,0.03
23.553,-0.02,-0.01,0.03,0.04
23.564,-0.00,0.01,0.02,0.03
23.574,0.02,-0.01,-0.01,0.02
23.584,0.03,-0.01,-0.03,0.04
23.594,0.02,-0.00,-0.02,0.03
23.604,0.01,-0.01,-0.02,0.03
23.614,0.02,0.00,-0.02,0.03
23.624,0.01,0.01,-0.02,0.02
23.634,-0.01,0.00,-0.00,0.01
23.644,-0.01,0.00,0.02,0.03
23.654,-0.02,0.02,0.03,0.04
23.664,-0.02,0.03,0.03,0.05
23.674,-0.03,0.01,0.03,0.05
23.684,-0.03,-0.02,0.01,0.03
23.695,-0.01,-0.01,0.00,0.02
23.705,-0.02,-0.01,-0.01,0.03
23.715,-0.01,0.01,-0.02,0.03
23.725,-0.00,-0.00,0.01,0.01
23.735,-0.00,-0.00,-0.00,0.00
23.745,0.00,-0.00,-0.01,0.01
23.755,0.01,-0.01,0.00,0.01
23.765,-0.00,-0.01,0.03,0.03
23.775,0.00,-0.01,0.02,0.03
23.785,0.01,-0.01,0.02,0.02
23.795,-0.00,-0.02,0.01,0.02
23.805,0.00,-0.01,0.00,0.01
23.815,0.01,-0.02,-0.01,0.03
23.825,-0.01,-0.01,-0.00,0.01
23.836,-0.00,-0.02,-0.02,0.03
23.846,0.00,-0.01,-0.02,0.02
23.856,-0.00,0.01,-0.03,0.03
23.866,0.01,0.02,0.01,0.03
23.876,0.03,0.01,0.02,0.03
23.886,-0.02,0.02,0.02,0.03
23.896,-0.04,0.02,0.00,0.04
23.906,-0.02,0.00,-0.02,0.03
23.916,-0.02,-0.00,0.01,0.02
23.926,-0.00,-0.01,0.01,0.02
23.936,0.00,-0.02,0.05,0.06
23.946,0.01,0.00,0.06,0.07
23.956,0.01,0.01,0.03,0.03
23.966,-0.02,0.01,-0.03,0.04
23.977,-0.00,0.03,-0.04,0.05
23.987,-0.00,0.04,-0.02,0.04
23.997,-0.00,0.03,0.00,0.03
24.007,-0.01,0.01,0.01,0.02
24.017,-0.01,0.02,0.04,0.05
24.027,-0.00,-0.01,0.04,0.04
24.037,-0.00,-0.02,0.03,0.04
24.047,-0.01,-0.04,-0.02,0.05
24.057,0.01,-0.04,-0.02,0.04
24.067,-0.01,-0.02,-0.02,0.02
24.077,0.00,-0.03,-0.03,0.04
24.087,0.00,-0.02,-0.01,0.02
24.097,0.00,-0.01,0.00,0.01
24.107,-0.01,-0.00,-0.01,0.01
24.118,0.00,-0.01,-0.00,0.01
24.128,0.01,-0.03,-0.00,0.03
24.138,0.02,-0.01,-0.01,0.02
24.148,-0.01,-0.00,-0.01,0.01
24.158,-0.00,0.01,-0.00,0.01
24.168,0.01,0.02,0.01,0.03
24.178,-0.01,0.03,0.02,0.04
24.188,-0.03,0.03,0.06,0.07
24.198,0.00,0.01,-0.02,0.02
24.208,-0.00,0.00,-0.05,0.05
24.218,-0.02,-0.01,-0.01,0.02
24.228,-0.00,-0.01,0.06,0.06
24.238,-0.02,-0.01,0.02,0.03
24.248,-0.01,0.02,-0.02,0.03
24.259,-0.02,0.03,0.02,0.04
24.269,-0.00,0.04,0.05,0.06
24.279,-0.01,0.01,0.02,0.02
24.289,-0.01,-0.00,-0.01,0.01
24.299,-0.00,0.02,0.01,0.02
24.309,-0.01,0.01,0.01,0.02
24.319,0.02,-0.03,0.02,0.04
24.329,0.02,-0.04,0.01,0.04
24.339,-0.00,-0.02,-0.01,0.03
24.349,0.00,-0.02,-0.01,0.02
24.359,-0.02,-0.00,0.02,0.02
24.369,-0.01,0.00,0.01,0.01
24.380,0.01,0.02,-0.03,0.03
24.389,-0.00,0.02,-0.01,0.02
24.399,0.01,0.01,0.01,0.02
24.409,0.00,0.01,0.01,0.01
24.420,0.00,-0.00,-0.01,0.01
24.430,-0.02,-0.01,-0.00,0.02
24.440,-0.01,-0.00,0.00,0.01
24.450,-0.00,0.02,0.02,0.03
24.460,-0.03,0.01,0.01,0.03
24.470,-0.05,0.02,0.02,0.06
24.480,-0.02,0.01,0.02,0.04
24.490,-0.02,-0.01,0.02,0.03
24.500,-0.01,-0.01,-0.01,0.02
24.510,0.01,-0.01,-0.05,0.05
24.520,0.01,-0.03,-0.04,0.05
24.530,0.02,-0.02,-0.01,0.03
24.541,-0.01,-0.00,-0.02,0.03
24.551,-0.01,0.01,0.00,0.01
24.561,0.01,-0.01,0.00,0.02
24.571,-0.00,-0.01,0.02,0.02
24.581,-0.00,-0.01,0.00,0.01
24.591,0.00,-0.01,-0.01,0.02
24.601,0.03,-0.02,0.00,0.04
24.611,0.01,-0.01,-0.00,0.01
24.621,-0.00,-0.00,-0.01,0.01
24.631,-0.00,-0.00,0.02,0.02
24.641,-0.02,0.00,0.00,0.02
24.651,-0.02,0.03,-0.00,0.03
24.661,-0.00,0.01,0.01,0.02
24.671,0.00,0.00,0.01,0.01
24.682,0.00,-0.00,0.00,0.01
24.692,0.00,-0.02,-0.04,0.05
24.702,0.00,-0.01,-0.06,0.06
24.712,0.00,0.01,-0.02,0.02
24.722,-0.01,-0.03,0.03,0.04
24.732,-0.02,-0.04,0.09,0.10
24.742,-0.00,-0.02,0.07,0.07
24.752,0.00,0.01,0.02,0.02
24.762,0.01,0.03,-0.01,0.03
24.772,-0.00,0.02,-0.01,0.03
24.782,0.00,0.02,-0.02,0.02
24.792,-0.01,0.03,-0.01,0.03
24.802,-0.01,0.03,0.00,0.03
24.812,-0.01,0.03,0.02,0.03
24.823,0.00,0.02,0.07,0.07
24.832,-0.00,-0.01,0.06,0.06
24.842,-0.00,-0.04,0.02,0.04
24.853,-0.01,-0.05,-0.01,0.05
24.863,0.01,-0.05,-0.01,0.05
24.873,0.01,-0.03,-0.01,0.03
24.883,0.01,-0.03,-0.02,0.04
24.893,0.01,-0.01,-0.03,0.03
24.903,0.01,0.01,-0.03,0.03
24.913,0.02,0.01,0.00,0.02
24.923,0.01,0.01,0.00,0.01
24.933,-0.02,0.02,0.03,0.03
24.943,-0.01,0.01,0.03,0.04
24.953,0.00,0.01,0.02,0.02
24.963,-0.01,-0.00,0.01,0.02
24.973,0.00,0.01,0.01,0.01
24.984,-0.02,0.01,-0.03,0.03
24.994,0.02,0.02,-0.10,0.10
25.004,0.00,0.01,-0.04,0.04
25.014,-0.01,0.01,0.04,0.04
25.024,-0.01,0.02,0.07,0.07
25.034,-0.03,-0.00,0.02,0.04
25.044,-0.02,0.00,0.02,0.03
25.054,0.01,0.00,0.02,0.02
25.064,-0.00,-0.00,0.02,0.02
25.074,-0.01,-0.01,-0.02,0.02
25.084,-0.02,0.00,-0.01,0.02
25.094,-0.02,0.03,0.01,0.03
25.104,0.00,0.02,0.03,0.03
25.114,-0.01,-0.01,0.01,0.02
25.125,0.01,-0.01,0.02,0.03
25.135,0.02,-0.03,-0.00,0.03
25.145,-0.01,-0.02,-0.00,0.03
25.155,0.02,-0.02,-0.03,0.04
25.165,0.01,-0.02,-0.04,0.04
25.175,0.01,-0.02,-0.02,0.03
25.185,0.01,-0.02,-0.02,0.03
25.195,0.00,0.01,0.00,0.01
25.205,0.02,0.02,0.01,0.03
25.215,0.02,0.03,0.01,0.03
25.225,-0.00,0.02,0.02,0.03
25.235,-0.01,0.01,0.03,0.04
25.245,-0.02,-0.00,0.01,0.03
25.255,-0.02,0.00,-0.01,0.03
25.266,-0.02,0.00,0.01,0.02
25.276,-0.00,0.00,0.01,0.01
25.286,-0.01,0.01,-0.01,0.02
25.296,-0.02,0.01,0.01,0.03
25.306,-0.01,0.02,0.03,0.04
25.316,-0.02,0.01,0.03,0.04
25.326,-0.01,0.01,0.03,0.04
25.336,0.02,-0.01,0.03,0.04
25.346,0.01,-0.03,0.01,0.03
25.356,0.01,-0.05,-0.03,0.06
25.366,0.02,-0.02,-0.04,0.05
25.376,0.00,-0.02,-0.00,0.02
25.386,-0.00,0.02,-0.00,0.02
25.396,-0.01,0.02,0.01,0.03
25.407,-0.01,-0.00,0.03,0.04
25.417,-0.00,-0.00,0.02,0.02
25.427,-0.01,0.01,0.00,0.02
25.437,0.00,0.01,-0.01,0.01
25.447,0.02,-0.02,-0.01,0.03
25.457,0.01,-0.01,-0.00,0.01
25.467,-0.00,-0.00,-0.02,0.02
25.477,-0.00,-0.02,-0.06,0.06
25.487,-0.00,0.01,-0.02,0.02
25.497,0.01,-0.01,0.04,0.04
25.507,-0.01,-0.02,0.08,0.08
25.517,-0.01,-0.02,0.06,0.06
25.527,0.01,-0.00,0.02,0.02
25.537,0.01,0.01,-0.01,0.02
25.548,0.00,0.03,-0.03,0.04
25.557,-0.00,0.02,-0.03,0.03
25.568,-0.01,0.02,-0.01,0.03
25.578,-0.02,0.03,0.03,0.05
25.588,-0.03,0.06,0.09,0.11
25.598,-0.02,0.03,0.07,0.08
25.608,-0.01,0.01,0.06,0.07
25.618,-0.01,-0.01,0.03,0.03
25.628,0.00,-0.02,0.00,0.02
25.638,0.01,-0.04,-0.01,0.05
25.648,0.02,-0.05,-0.03,0.07
25.658,0.02,-0.03,-0.05,0.06
25.668,-0.00,-0.03,-0.03,0.04
25.678,-0.00,-0.02,-0.02,0.03
25.688,0.01,-0.01,-0.02,0.03
25.698,0.02,-0.03,-0.04,0.05
25.709,0.01,0.01,-0.03,0.03
25.719,0.01,0.00,-0.01,0.02
25.729,0.02,0.00,0.01,0.02
25.739,-0.01,0.02,0.03,0.03
25.749,-0.01,0.02,0.05,0.05
25.759,-0.04,0.02,0.02,0.05
25.769,-0.03,0.02,-0.06,0.07
25.779,0.04,-0.03,0.03,0.06
25.789,-0.03,-0.00,0.09,0.09
25.799,-0.07,0.04,-0.06,0.10
25.809,-0.03,0.03,-0.01,0.04
25.819,-0.03,0.03,0.05,0.06
25.830,0.00,0.00,0.05,0.05
25.839,-0.02,0.00,0.00,0.02
25.850,-0.01,0.03,-0.03,0.04
25.860,-0.01,0.01,-0.03,0.03
25.870,-0.01,0.00,0.01,0.02
25.880,-0.02,-0.01,0.04,0.05
25.890,-0.01,-0.02,0.03,0.03
25.900,0.01,-0.02,0.02,0.03
25.910,0.02,-0.03,0.01,0.04
25.920,0.01,-0.02,-0.02,0.03
25.930,0.01,-0.02,-0.04,0.05
25.940,0.01,-0.01,-0.03,0.04
25.950,0.04,-0.00,-0.02,0.04
25.960,0.03,-0.01,-0.02,0.04
25.971,0.00,0.01,-0.02,0.02
25.981,0.02,0.00,-0.02,0.03
25.991,0.00,-0.01,-0.01,0.01
26.001,-0.01,-0.00,-0.00,0.01
26.011,-0.01,0.00,-0.00,0.01
26.021,-0.00,0.00,-0.00,0.00
26.031,-0.02,0.01,0.01,0.02
26.041,-0.03,0.03,0.04,0.06
26.051,-0.02,0.00,0.04,0.04
26.061,-0.02,0.01,0.01,0.03
26.071,-0.00,-0.00,-0.00,0.01
26.081,0.00,-0.00,-0.02,0.02
26.091,0.01,-0.01,-0.02,0.02
26.101,0.00,0.00,-0.01,0.01
26.111,-0.00,-0.00,0.02,0.02
26.121,-0.01,0.02,0.03,0.04
26.132,-0.01,0.02,0.02,0.03
26.142,-0.02,0.00,0.02,0.02
26.152,0.00,-0.01,0.01,0.02
26.162,-0.00,-0.02,-0.00,0.02
26.172,-0.01,-0.02,-0.01,0.02
26.182,0.02,-0.03,-0.02,0.04
26.192,0.03,-0.03,-0.04,0.06
26.202,0.02,-0.02,-0.04,0.05
26.212,0.00,0.01,-0.04,0.04
26.222,0.01,0.00,-0.03,0.03
26.232,0.02,0.01,0.02,0.02
26.242,-0.01,-0.00,0.03,0.04
26.252,-0.02,0.01,-0.00,0.02
26.262,-0.02,0.01,-0.02,0.03
26.273,-0.01,-0.02,-0.00,0.02
26.283,0.00,-0.01,0.03,0.03
26.293,-0.01,-0.03,0.06,0.06
26.303,-0.01,-0.01,0.06,0.06
26.313,-0.01,0.01,0.03,0.04
26.323,-0.03,0.03,-0.01,0.05
26.333,-0.01,0.02,-0.05,0.05
26.343,-0.01,0.01,-0.03,0.04
26.353,0.01,0.00,-0.01,0.01
26.363,0.02,0.01,0.01,0.02
26.373,-0.01,0.02,0.03,0.04
26.383,0.00,0.02,0.05,0.06
26.393,-0.01,-0.02,0.07,0.07
26.404,-0.01,-0.03,0.05,0.06
26.414,-0.01,-0.03,0.01,0.03
26.424,0.01,-0.01,0.00,0.01
26.434,0.02,-0.02,0.01,0.02
26.444,0.01,-0.00,-0.02,0.02
26.454,0.01,0.01,-0.03,0.03
26.464,-0.01,0.01,-0.02,0.03
26.474,0.03,-0.00,-0.02,0.04
26.484,0.02,-0.01,-0.04,0.04
26.494,0.00,-0.01,-0.03,0.03
26.504,0.01,-0.00,-0.02,0.02
26.514,-0.00,-0.00,0.01,0.01
26.524,0.01,0.01,0.02,0.03
26.534,-0.02,0.01,0.04,0.05
26.544,-0.02,0.02,-0.02,0.03
26.555,0.00,0.02,-0.05,0.06
26.564,-0.02,-0.01,-0.03,0.04
26.575,-0.02,-0.00,0.07,0.07
26.585,-0.01,0.02,0.08,0.09
26.595,-0.02,-0.00,-0.01,0.03
26.605,-0.02,0.01,-0.01,0.03
26.615,-0.02,0.01,0.01,0.03
26.625,-0.01,-0.01,0.02,0.02
26.635,-0.01,-0.02,-0.01,0.02
26.645,-0.00,0.01,-0.01,0.02
26.655,0.01,0.01,0.00,0.02
26.665,-0.00,-0.01,0.01,0.02
26.675,-0.01,-0.02,0.03,0.04
26.685,0.01,-0.01,0.01,0.02
26.696,0.00,-0.02,0.02,0.03
26.705,-0.02,0.00,0.02,0.03
26.716,-0.02,0.00,0.00,0.02
26.726,0.00,0.00,-0.01,0.01
26.736,0.02,-0.01,-0.02,0.03
26.746,0.02,-0.03,-0.04,0.05
26.756,0.02,-0.00,-0.03,0.04
26.766,0.01,-0.01,-0.02,0.03
26.776,0.00,-0.02,-0.02,0.03
26.786,-0.01,0.01,-0.01,0.02
26.796,0.00,0.02,0.00,0.02
26.806,-0.02,0.02,0.02,0.03
26.816,-0.02,0.03,0.03,0.04
26.826,0.01,0.01,0.02,0.02
26.836,-0.01,0.01,0.01,0.02
26.846,-0.02,0.01,0.01,0.02
26.856,-0.04,0.01,0.01,0.04
26.867,-0.04,0.02,0.01,0.05
26.877,-0.04,0.01,0.04,0.05
26.887,-0.02,-0.01,0.03,0.04
26.897,-0.00,0.01,0.01,0.01
26.907,0.00,0.00,-0.00,0.00
26.917,0.02,0.00,-0.01,0.02
26.927,0.03,-0.02,-0.02,0.04
26.937,0.01,-0.04,-0.03,0.05
26.947,0.02,-0.03,-0.04,0.05
26.957,-0.01,-0.02,-0.00,0.02
26.967,-0.00,-0.03,0.02,0.03
26.977,0.01,-0.01,0.03,0.04
26.987,-0.01,-0.00,0.01,0.01
26.998,-0.00,0.01,0.00,0.01
27.007,0.02,0.03,0.00,0.04
27.018,0.02,0.00,0.00,0.02
27.028,-0.01,0.01,-0.04,0.04
27.038,0.01,-0.01,-0.06,0.06
27.048,-0.02,-0.01,-0.03,0.04
27.058,-0.01,-0.01,0.01,0.02
27.068,-0.01,-0.01,0.06,0.06
27.078,-0.02,-0.00,0.10,0.10
27.088,-0.01,0.02,0.06,0.07
27.098,0.01,0.05,0.02,0.06
27.108,-0.01,0.04,-0.02,0.05
27.118,-0.01,0.02,-0.03,0.04
27.128,-0.01,0.00,-0.01,0.02
27.139,-0.00,0.02,0.00,0.02
27.149,0.00,0.02,0.01,0.02
27.159,0.00,0.00,0.03,0.03
27.169,-0.00,-0.03,0.03,0.04
27.179,-0.00,-0.03,0.02,0.04
27.189,0.03,-0.03,-0.00,0.04
27.199,0.01,-0.03,-0.02,0.04
27.209,0.03,-0.02,-0.04,0.06
27.219,0.02,-0.00,-0.04,0.05
27.229,0.01,-0.01,-0.02,0.03
27.239,0.00,0.01,-0.03,0.03
27.249,0.00,-0.01,-0.01,0.01
27.259,0.00,-0.01,0.01,0.02
27.269,0.00,0.01,0.02,0.02
27.280,-0.03,0.02,0.01,0.04
27.290,-0.00,0.01,0.03,0.03
27.300,0.01,0.01,0.03,0.03
27.310,-0.01,0.01,0.00,0.02
27.320,-0.00,0.00,-0.03,0.04
27.330,-0.00,0.01,-0.08,0.08
27.340,0.02,-0.00,-0.07,0.07
27.350,0.00,-0.02,0.02,0.02
27.360,-0.02,0.01,0.06,0.06
27.370,-0.02,0.02,0.05,0.05
27.380,-0.04,0.03,0.03,0.06
27.390,-0.02,0.02,0.05,0.06
27.400,-0.00,0.01,0.03,0.03
27.410,-0.01,0.00,0.01,0.01
27.420,0.01,-0.00,-0.02,0.02
27.431,-0.01,-0.00,-0.00,0.01
27.441,0.00,0.00,-0.00,0.00
27.451,0.01,-0.02,-0.00,0.02
27.461,-0.00,-0.04,-0.02,0.04
27.471,0.00,-0.04,-0.00,0.04
27.481,-0.01,-0.03,-0.01,0.03
27.491,0.01,-0.01,-0.01,0.02
27.501,0.00,0.00,-0.02,0.02
27.511,0.01,0.01,-0.03,0.03
27.521,0.00,0.03,-0.02,0.03
27.531,0.02,0.01,0.01,0.03
27.541,0.01,0.00,-0.00,0.01
27.551,-0.01,-0.01,0.01,0.01
27.561,0.01,-0.00,0.01,0.01
27.571,-0.01,-0.01,-0.01,0.02
27.582,-0.02,0.00,0.00,0.02
27.592,-0.02,0.01,-0.02,0.03
27.602,-0.02,0.01,0.00,0.02
27.612,-0.03,0.03,0.03,0.05
27.622,-0.03,0.01,0.04,0.05
27.632,-0.03,0.02,0.03,0.05
27.642,-0.03,-0.00,0.02,0.03
27.652,-0.02,-0.01,-0.00,0.02
27.662,-0.01,-0.01,-0.00,0.02
27.672,0.00,-0.02,-0.01,0.02
27.682,-0.00,-0.03,-0.03,0.04
27.692,0.02,0.01,-0.02,0.02
27.703,0.01,0.00,-0.02,0.02
27.713,0.00,0.00,0.00,0.00
27.723,0.02,0.01,0.01,0.02
27.733,0.01,-0.01,0.00,0.01
27.743,0.01,-0.00,-0.00,0.02
27.753,0.01,-0.01,0.01,0.02
27.763,0.01,-0.01,-0.00,0.01
27.773,0.01,-0.02,0.01,0.02
27.783,-0.00,-0.00,0.03,0.03
27.793,-0.00,0.00,0.00,0.00
27.803,-0.00,0.04,0.01,0.04
27.813,-0.01,0.01,0.02,0.03
27.823,0.00,0.01,0.02,0.02
27.833,-0.01,-0.00,-0.02,0.02
27.843,-0.01,-0.00,-0.04,0.04
27.853,0.01,-0.00,-0.02,0.02
27.864,0.00,-0.02,-0.02,0.02
27.874,-0.02,0.00,-0.01,0.03
27.884,-0.02,0.01,-0.01,0.03
27.894,0.00,0.01,-0.00,0.01
27.904,0.01,0.00,-0.00,0.01
27.914,0.02,-0.03,0.03,0.04
27.924,0.02,-0.05,0.07,0.09
27.934,0.02,-0.04,0.04,0.06
27.944,0.01,-0.01,-0.03,0.03
27.954,-0.01,0.00,-0.05,0.05
27.964,0.01,0.02,-0.01,0.03
27.974,-0.01,0.03,0.01,0.03
27.985,-0.01,0.04,0.04,0.06
27.994,0.04,0.01,0.14,0.15
28.005,-0.03,0.07,-0.01,0.07
28.015,-0.00,0.02,-0.04,0.04
28.025,-0.01,-0.02,-0.01,0.03
28.035,-0.02,-0.03,0.02,0.05
28.045,-0.02,-0.04,0.02,0.05
28.055,-0.02,-0.02,-0.02,0.03
28.065,-0.03,0.01,-0.00,0.03
28.075,-0.01,0.02,0.02,0.03
28.085,0.01,0.01,-0.00,0.01
28.095,0.02,0.01,-0.01,0.03
28.105,0.01,-0.02,0.01,0.02
28.115,0.01,-0.03,-0.01,0.03
28.125,0.01,-0.02,-0.03,0.04
28.135,0.02,-0.02,-0.01,0.03
28.146,-0.00,0.01,-0.01,0.01
28.156,-0.01,0.03,0.03,0.04
28.166,-0.03,0.03,0.04,0.06
28.176,-0.01,0.03,0.00,0.03
28.186,0.02,-0.02,0.02,0.03
28.196,-0.04,0.04,-0.07,0.09
28.206,0.01,-0.01,0.03,0.03
28.216,-0.03,0.01,0.04,0.05
28.226,-0.01,-0.02,0.04,0.04
28.236,-0.02,0.00,0.00,0.02
28.246,-0.01,0.02,-0.01,0.02
28.256,-0.01,0.01,0.01,0.02
28.266,-0.02,0.01,0.00,0.02
28.276,-0.01,0.02,-0.01,0.03
28.287,-0.01,0.02,0.01,0.02
28.297,0.01,0.00,0.02,0.03
28.307,-0.00,-0.02,-0.00,0.02
28.317,0.00,-0.03,-0.00,0.03
28.327,-0.00,-0.03,0.00,0.03
28.337,0.00,-0.02,0.01,0.02
28.347,-0.01,-0.00,0.00,0.01
28.357,0.00,-0.01,-0.02,0.02
28.367,0.01,-0.01,-0.01,0.02
28.377,0.03,0.01,0.00,0.03
28.387,0.02,0.01,-0.02,0.03
28.397,0.01,0.02,-0.02,0.03
28.407,0.02,0.01,-0.01,0.02
28.417,0.01,-0.02,-0.02,0.03
28.428,0.01,-0.00,-0.01,0.01
28.438,0.00,0.01,-0.02,0.03
28.448,0.02,-0.02,-0.02,0.03
28.458,0.00,0.00,0.03,0.03
28.468,-0.02,0.00,0.03,0.04
28.478,-0.02,-0.00,0.01,0.03
28.488,-0.03,0.02,0.02,0.04
28.498,-0.03,0.04,0.03,0.05
28.508,-0.01,0.02,0.03,0.03
28.518,-0.01,0.01,0.02,0.02
28.528,-0.01,0.01,0.00,0.02
28.538,-0.00,0.01,0.01,0.01
28.548,0.00,-0.01,0.01,0.01
28.558,0.00,-0.00,0.01,0.01
28.569,0.02,0.00,0.01,0.02
28.579,0.00,-0.00,0.00,0.01
28.589,-0.00,0.00,0.02,0.02
28.599,-0.00,0.01,0.02,0.02
28.609,-0.01,0.01,0.00,0.01
28.619,0.01,-0.00,-0.02,0.02
28.629,0.00,-0.01,-0.00,0.02
28.639,0.00,-0.00,0.01,0.02
28.649,0.01,-0.02,-0.01,0.02
28.659,-0.00,0.01,-0.02,0.03
28.669,0.00,0.00,-0.01,0.01
28.679,0.01,-0.00,0.02,0.02
28.689,-0.00,0.01,0.02,0.03
28.699,-0.00,0.01,-0.01,0.01
28.709,-0.01,0.01,0.01,0.01
28.720,-0.00,0.01,0.00,0.01
28.730,-0.01,0.00,0.01,0.01
28.740,0.00,0.01,0.01,0.01
28.750,-0.01,-0.01,-0.01,0.02
28.760,-0.02,0.00,-0.00,0.02
28.770,-0.01,-0.00,-0.00,0.01
28.780,-0.00,-0.01,-0.01,0.01
28.790,0.00,-0.01,-0.01,0.02
28.800,-0.01,0.01,-0.02,0.02
28.810,-0.01,0.03,-0.02,0.04
28.820,-0.02,0.02,0.01,0.03
28.830,0.00,0.02,0.02,0.02
28.840,0.01,0.02,0.01,0.02
28.851,-0.02,0.00,-0.03,0.04
28.860,-0.00,-0.00,-0.04,0.04
28.871,-0.00,-0.01,0.03,0.03
28.881,-0.01,-0.02,0.06,0.06
28.891,-0.01,-0.02,0.04,0.05
28.901,0.01,-0.00,0.03,0.04
28.911,0.01,0.01,-0.01,0.02
28.921,-0.02,0.03,-0.05,0.06
28.931,-0.01,0.04,-0.04,0.06
28.941,0.01,0.05,-0.02,0.05
28.951,-0.01,0.04,0.03,0.05
28.961,-0.01,0.03,0.05,0.06
28.971,0.01,0.02,0.06,0.06
28.981,0.02,-0.02,0.03,0.04
28.991,0.01,-0.04,0.01,0.04
29.002,-0.01,-0.05,-0.02,0.05
29.012,0.00,-0.04,-0.00,0.04
29.022,0.01,-0.04,-0.01,0.04
29.032,0.01,-0.03,-0.02,0.04
29.042,0.00,-0.01,-0.02,0.02
29.052,0.01,0.01,-0.01,0.01
29.062,0.01,0.02,-0.01,0.02
29.072,0.01,0.02,0.00,0.02
29.082,-0.01,0.00,0.01,0.01
29.092,-0.00,-0.00,-0.01,0.01
29.102,0.01,0.02,0.01,0.02
29.112,-0.01,0.03,0.04,0.05
29.122,-0.05,0.04,0.08,0.10
29.133,0.00,-0.03,-0.07,0.08
29.142,-0.04,0.03,-0.01,0.05
29.153,-0.02,0.03,-0.04,0.06
29.163,0.00,-0.00,-0.01,0.02
29.173,-0.00,0.02,0.04,0.05
29.183,-0.00,0.02,0.05,0.05
29.193,-0.00,0.02,0.01,0.02
29.203,0.00,0.03,-0.01,0.03
29.213,-0.01,0.03,0.02,0.03
29.223,-0.02,-0.01,0.03,0.04
29.233,-0.02,-0.00,0.03,0.03
29.243,-0.03,0.02,0.02,0.05
29.253,-0.00,0.02,0.04,0.05
29.263,-0.01,-0.00,0.04,0.04
29.273,0.02,-0.02,0.02,0.03
29.283,0.01,-0.03,-0.03,0.04
29.294,0.01,-0.03,-0.02,0.04
29.304,-0.00,-0.02,-0.01,0.02
29.314,-0.01,-0.01,-0.02,0.03
29.324,0.01,-0.00,-0.04,0.04
29.334,0.01,-0.00,-0.01,0.01
29.344,0.01,0.00,0.02,0.02
29.354,0.01,0.01,0.00,0.02
29.364,0.00,0.02,0.01,0.02
29.374,-0.00,0.01,0.02,0.02
29.384,-0.02,0.01,0.01,0.03
29.394,-0.02,0.01,0.00,0.02
29.404,-0.02,-0.00,0.01,0.02
29.414,0.00,0.00,-0.01,0.01
29.425,-0.01,0.00,-0.01,0.01
29.435,-0.01,0.00,-0.01,0.01
29.445,-0.01,-0.00,0.02,0.02
29.455,-0.01,0.01,-0.01,0.01
29.465,0.01,0.01,0.01,0.02
29.475,0.01,0.02,0.00,0.02
29.485,0.01,-0.01,-0.01,0.01
29.495,-0.00,-0.01,0.01,0.02
29.505,-0.02,-0.00,0.03,0.04
29.515,-0.02,0.01,0.01,0.03
29.525,-0.02,0.01,0.01,0.02
29.535,-0.00,0.01,0.01,0.01
29.545,0.01,0.01,0.00,0.02
29.555,0.01,0.01,-0.00,0.01
29.565,-0.00,-0.01,-0.01,0.02
29.575,0.02,-0.01,-0.02,0.03
29.585,0.00,-0.04,-0.01,0.04
29.596,0.00,-0.01,-0.01,0.02
29.606,0.00,-0.00,0.00,0.01
29.616,0.02,-0.02,0.02,0.03
29.626,-0.02,-0.00,0.01,0.02
29.636,-0.03,0.03,-0.01,0.04
29.646,0.01,0.03,0.00,0.03
29.656,-0.02,0.02,0.05,0.05
29.666,-0.01,0.01,0.05,0.05
29.676,-0.00,0.01,0.00,0.01
29.686,-0.00,-0.02,-0.01,0.02
29.696,-0.01,-0.00,-0.00,0.01
29.706,0.02,0.01,0.01,0.02
29.717,0.00,0.00,0.02,0.02
29.726,0.02,-0.01,0.00,0.02
29.737,0.00,-0.01,-0.06,0.06
29.747,-0.01,0.00,-0.07,0.07
29.757,-0.02,0.00,-0.00,0.02
29.767,0.00,-0.01,0.05,0.05
29.777,-0.01,-0.02,0.09,0.09
29.787,-0.01,-0.01,0.08,0.08
29.797,-0.00,0.02,0.02,0.03
29.807,0.00,0.03,-0.01,0.04
29.817,0.02,0.02,-0.03,0.04
29.827,0.02,0.03,-0.04,0.05
29.837,0.02,0.01,-0.01,0.03
29.847,0.01,0.00,-0.01,0.01
29.858,-0.01,0.02,0.01,0.02
29.868,-0.02,0.01,0.04,0.05
29.878,-0.02,-0.01,0.05,0.05
29.888,-0.00,-0.02,0.07,0.07
29.898,0.02,-0.01,0.02,0.03
29.908,0.03,-0.04,-0.02,0.06
29.918,0.05,-0.04,-0.03,0.07
29.928,0.02,-0.05,-0.04,0.07
29.938,0.01,-0.03,-0.07,0.07
29.948,0.01,-0.03,-0.05,0.06
29.958,0.01,-0.01,-0.00,0.02
29.968,-0.00,-0.01,0.02,0.02
29.978,-0.02,0.03,0.03,0.05
29.988,-0.00,0.03,0.05,0.06
29.998,-0.02,0.03,0.07,0.08
30.009,-0.03,0.03,0.06,0.07
30.019,-0.01,0.02,0.02,0.03
30.029,-0.02,0.01,-0.03,0.04
30.039,0.01,-0.00,-0.10,0.10
30.049,-0.01,0.01,-0.07,0.07
30.059,-0.02,0.00,0.00,0.02
30.069,-0.02,0.02,0.07,0.08
30.079,-0.02,0.02,0.05,0.06
30.089,-0.02,0.03,0.02,0.04
30.099,-0.02,0.03,0.03,0.05
30.109,-0.01,0.02,0.03,0.04
30.119,-0.01,-0.02,0.01,0.03
30.129,0.03,-0.01,-0.00,0.03
30.139,0.01,-0.02,-0.01,0.02
30.149,0.02,-0.03,-0.03,0.05
30.160,0.02,-0.03,-0.00,0.04
30.170,0.03,-0.03,0.00,0.04
30.180,0.01,-0.03,0.01,0.03
30.190,0.00,-0.01,0.01,0.01
30.200,-0.01,-0.00,0.02,0.02
30.210,-0.01,-0.01,0.01,0.02
30.220,0.00,0.01,-0.00,0.01
30.230,0.01,0.00,0.00,0.01
30.240,0.02,-0.00,-0.01,0.02
30.250,0.01,0.02,-0.01,0.03
30.260,0.01,0.01,-0.01,0.02
30.270,0.01,-0.01,0.01,0.02
30.280,0.02,-0.00,0.00,0.02
30.290,0.00,0.00,-0.00,0.01
30.301,-0.02,-0.00,-0.03,0.03
30.311,-0.02,0.00,0.01,0.02
30.321,0.00,0.01,0.04,0.05
30.331,0.05,-0.03,0.16,0.17
30.341,-0.07,0.07,-0.05,0.11
30.351,-0.06,0.05,-0.12,0.14
30.361,-0.01,0.03,0.00,0.03
30.371,-0.02,0.00,0.10,0.10
30.381,-0.02,-0.01,0.05,0.06
30.391,-0.01,0.00,-0.01,0.02
30.401,0.01,-0.00,-0.01,0.01
30.411,-0.00,-0.01,0.01,0.01
30.421,0.01,-0.02,0.02,0.03
30.431,0.01,-0.01,-0.00,0.01
30.442,0.01,0.01,-0.02,0.02
30.452,0.01,0.00,-0.02,0.03
30.462,-0.00,-0.02,-0.02,0.03
30.472,0.02,-0.02,-0.00,0.03
30.482,-0.01,-0.00,0.00,0.01
30.492,-0.01,-0.01,-0.01,0.02
30.502,-0.00,0.00,0.01,0.01
30.512,-0.02,0.01,-0.02,0.03
30.522,-0.00,0.02,-0.01,0.02
30.532,-0.00,0.02,0.01,0.02
30.542,-0.03,0.02,0.02,0.04
30.552,-0.02,0.01,-0.01,0.02
30.562,-0.01,-0.02,-0.02,0.03
30.572,0.01,0.00,-0.00,0.01
30.582,0.01,-0.02,0.00,0.02
30.593,0.01,-0.03,0.02,0.04
30.603,0.00,-0.02,0.07,0.07
30.613,-0.02,-0.01,0.04,0.05
30.623,-0.02,0.02,-0.01,0.03
30.633,-0.01,0.04,-0.03,0.05
30.643,0.02,0.03,-0.02,0.04
30.653,0.04,0.01,-0.02,0.05
30.663,0.01,0.02,-0.02,0.03
30.673,0.01,0.01,0.01,0.02
30.683,-0.01,0.02,0.03,0.04
30.693,-0.01,0.00,0.04,0.04
30.703,-0.00,-0.01,0.04,0.05
30.713,-0.00,-0.03,0.03,0.04
30.724,0.00,-0.02,0.01,0.02
30.734,0.00,-0.01,-0.01,0.02
30.744,0.03,-0.03,-0.01,0.04
30.754,0.02,-0.01,-0.01,0.02
30.764,0.01,0.01,-0.03,0.03
30.774,-0.01,-0.00,-0.03,0.03
30.784,0.01,-0.01,-0.02,0.03
30.794,0.01,0.00,-0.01,0.02
30.804,0.01,0.01,-0.01,0.01
30.814,0.02,0.02,-0.00,0.03
30.824,0.02,0.01,0.01,0.03
30.834,-0.01,0.01,0.04,0.04
30.844,-0.00,0.00,0.02,0.02
30.854,-0.01,-0.01,-0.05,0.06
30.864,0.00,0.00,-0.09,0.09
30.875,0.00,-0.01,-0.03,0.03
30.885,0.00,0.00,0.07,0.07
30.895,-0.02,0.01,0.08,0.08
30.905,-0.01,0.04,0.04,0.06
30.915,-0.01,0.04,0.02,0.05
30.925,-0.01,0.01,0.02,0.02
30.935,-0.01,0.00,0.02,0.02
30.945,-0.01,0.00,0.00,0.01
30.955,0.01,-0.01,-0.02,0.02
30.965,0.01,-0.02,-0.02,0.03
30.975,-0.01,-0.01,0.02,0.02
30.985,-0.02,0.00,0.02,0.03
30.995,0.02,-0.02,0.04,0.04
31.005,0.01,-0.01,0.00,0.01
31.015,0.00,0.01,0.02,0.02
31.026,0.01,-0.00,0.01,0.02
31.036,0.02,-0.00,-0.02,0.02
31.046,0.00,-0.01,0.00,0.01
31.056,0.01,-0.01,-0.02,0.03
31.066,0.02,-0.00,-0.03,0.03
31.076,0.01,-0.00,-0.02,0.02
31.086,-0.00,0.01,0.01,0.02
31.096,-0.00,0.01,0.02,0.02
31.106,-0.00,0.01,0.00,0.01
31.116,-0.03,0.02,0.01,0.04
31.126,-0.03,0.01,0.01,0.04
31.136,-0.02,0.00,0.02,0.03
31.146,-0.02,0.01,-0.00,0.02
31.157,0.01,-0.00,-0.02,0.03
31.167,0.00,-0.01,-0.02,0.02
31.177,0.00,-0.01,-0.00,0.01
31.187,-0.01,0.00,-0.00,0.01
31.197,-0.02,0.01,0.02,0.03
31.207,-0.02,0.01,0.01,0.02
31.217,-0.01,0.00,0.02,0.02
31.227,-0.00,0.01,-0.01,0.01
31.237,0.00,-0.00,0.00,0.00
31.247,0.01,-0.01,0.01,0.01
31.257,0.02,-0.01,0.00,0.03
31.267,0.04,-0.01,-0.01,0.04
31.277,0.02,-0.02,-0.01,0.03
31.287,0.00,0.01,-0.03,0.03
31.297,0.01,0.01,-0.02,0.02
31.308,-0.01,0.01,0.04,0.04
31.318,-0.02,0.02,0.07,0.08
31.328,-0.02,0.01,0.02,0.03
31.338,-0.01,0.01,0.02,0.03
31.348,0.01,0.00,0.03,0.03
31.358,0.01,0.00,-0.01,0.01
31.368,0.01,0.01,-0.04,0.04
31.378,-0.02,0.00,-0.02,0.03
31.388,0.01,0.01,0.01,0.02
31.398,-0.01,0.01,0.01,0.02
31.408,-0.01,0.00,0.03,0.03
31.418,-0.02,0.02,-0.01,0.03
31.428,-0.02,0.00,-0.03,0.03
31.438,0.01,-0.03,0.00,0.04
31.449,0.00,-0.03,0.03,0.04
31.459,-0.01,-0.03,0.04,0.05
31.469,-0.01,-0.03,0.03,0.04
31.479,-0.01,-0.01,0.01,0.02
31.489,-0.02,0.03,-0.00,0.04
31.499,-0.01,0.04,-0.03,0.06
31.509,0.00,0.04,0.01,0.04
31.519,0.02,0.04,-0.00,0.04
31.529,0.02,0.02,0.01,0.03
31.539,0.01,0.01,0.01,0.02
31.549,-0.01,0.01,0.01,0.01
31.559,-0.02,-0.01,0.04,0.04
31.569,-0.01,-0.02,-0.00,0.03
31.579,-0.03,-0.04,0.01,0.05
31.590,-0.00,-0.02,0.03,0.03
31.600,0.02,-0.01,0.02,0.03
31.610,0.03,0.01,-0.00,0.04
31.620,0.03,0.00,-0.01,0.03
31.630,0.04,-0.02,-0.02,0.05
31.640,0.01,-0.00,-0.02,0.03
31.650,-0.00,0.01,-0.01,0.01
31.660,-0.02,0.01,-0.01,0.02
31.670,-0.02,-0.00,0.02,0.03
31.680,-0.01,0.02,0.03,0.04
31.690,-0.03,0.02,0.02,0.04
31.700,-0.01,0.01,0.03,0.03
31.710,-0.02,0.02,-0.01,0.03
31.720,-0.01,0.01,-0.07,0.07
31.731,0.01,-0.02,-0.07,0.07
31.740,0.01,-0.01,0.00,0.01
31.751,-0.01,-0.01,0.05,0.05
31.761,-0.01,0.02,0.03,0.03
31.771,-0.02,0.01,0.02,0.03
31.781,-0.00,0.02,0.04,0.04
31.791,-0.02,0.01,0.03,0.04
31.801,-0.00,0.00,0.01,0.01
31.811,-0.00,0.01,-0.01,0.02
31.821,0.01,0.02,0.00,0.02
31.831,0.00,0.00,0.02,0.02
31.841,-0.00,-0.01,0.02,0.02
31.851,-0.01,-0.01,0.04,0.04
31.861,-0.00,-0.02,0.03,0.03
31.872,0.01,-0.03,-0.01,0.03
31.882,0.01,-0.01,-0.02,0.03
31.892,0.02,-0.01,-0.05,0.05
31.902,0.00,-0.02,-0.04,0.04
31.912,0.02,0.02,-0.01,0.03
31.922,0.01,0.02,-0.01,0.03
31.932,-0.00,0.02,-0.00,0.02
31.942,-0.02,0.02,0.02,0.04
31.952,-0.00,0.02,0.03,0.04
31.962,-0.01,0.03,0.05,0.06
31.972,-0.01,0.00,0.02,0.02
31.982,-0.01,-0.00,0.00,0.01
31.992,-0.02,0.01,0.01,0.02
32.002,-0.02,-0.01,-0.02,0.03
32.012,-0.02,-0.00,-0.00,0.02
32.022,-0.01,-0.01,-0.01,0.02
32.033,-0.01,0.01,0.00,0.01
32.043,-0.01,0.00,0.00,0.01
32.053,-0.01,0.01,0.01,0.02
32.063,-0.00,0.01,0.01,0.01
32.073,0.01,0.01,0.02,0.02
32.083,0.00,0.00,0.02,0.02
32.093,-0.00,-0.01,0.01,0.01
32.103,-0.00,-0.02,-0.01,0.03
32.113,0.00,-0.02,-0.01,0.02
32.123,-0.01,-0.02,-0.02,0.03
32.133,0.00,-0.01,-0.01,0.01
32.144,0.01,-0.00,-0.01,0.01
32.154,0.02,-0.00,-0.01,0.02
32.163,-0.01,-0.01,-0.01,0.02
32.174,0.01,0.01,-0.02,0.02
32.184,-0.00,0.01,-0.00,0.02
32.194,0.01,0.01,0.02,0.03
32.204,-0.01,0.03,0.02,0.04
32.214,-0.03,0.03,0.03,0.05
32.224,-0.00,0.01,0.01,0.01
32.234,-0.00,0.01,0.01,0.01
32.244,0.00,-0.01,0.01,0.02
32.254,-0.00,-0.03,0.04,0.05
32.264,-0.03,-0.01,0.03,0.04
32.274,0.01,0.00,0.02,0.02
32.284,-0.00,0.01,-0.00,0.01
32.294,0.00,0.02,-0.03,0.04
32.304,0.01,0.03,-0.05,0.06
32.315,0.01,-0.01,-0.03,0.03
32.325,0.01,-0.01,0.01,0.02
32.335,-0.00,0.01,0.03,0.03
32.345,0.01,0.00,0.03,0.03
32.355,0.00,-0.01,0.04,0.04
32.365,-0.00,-0.01,0.04,0.04
32.375,-0.01,-0.02,0.01,0.03
32.385,0.01,-0.03,-0.01,0.03
32.395,0.01,-0.02,-0.02,0.03
32.405,0.00,-0.00,-0.01,0.01
32.415,0.00,-0.02,-0.03,0.04
32.425,0.01,-0.03,-0.05,0.06
32.435,-0.02,-0.02,-0.02,0.03
32.445,0.00,-0.01,-0.02,0.02
32.456,-0.02,0.01,0.01,0.02
32.466,-0.01,0.02,0.03,0.04
32.476,-0.01,0.03,0.02,0.04
32.486,0.00,0.02,0.04,0.04
32.496,-0.02,0.02,0.06,0.07
32.506,0.01,0.02,-0.00,0.02
32.516,-0.02,0.01,-0.04,0.05
32.526,-0.01,-0.01,-0.06,0.06
32.536,-0.01,-0.01,-0.02,0.02
32.546,-0.01,0.00,0.06,0.06
32.556,-0.01,0.02,0.03,0.04
32.566,-0.03,0.02,0.00,0.03
32.577,-0.03,0.02,0.03,0.04
32.586,-0.01,0.01,0.05,0.05
32.597,-0.01,0.00,0.03,0.03
32.607,-0.00,-0.01,0.00,0.01
32.617,0.02,0.00,-0.01,0.02
32.627,-0.01,-0.02,0.00,0.02
32.637,0.02,-0.04,0.00,0.04
32.647,0.00,-0.03,0.01,0.03
32.657,0.00,-0.02,0.01,0.02
32.667,-0.01,-0.02,0.03,0.04
32.677,0.00,-0.01,0.04,0.04
32.687,-0.00,-0.01,-0.00,0.01
32.697,0.02,-0.01,-0.01,0.02
32.707,0.03,0.00,-0.04,0.05
32.718,0.03,-0.01,-0.05,0.05
32.727,0.02,-0.02,-0.03,0.04
32.737,0.02,-0.00,-0.04,0.04
32.747,0.01,0.01,-0.02,0.02
32.758,0.00,0.00,0.00,0.01
32.768,-0.01,0.05,0.04,0.06
32.778,-0.02,0.03,0.03,0.04
32.788,-0.03,0.03,0.03,0.05
32.798,-0.04,0.02,0.03,0.06
32.808,-0.04,0.00,0.01,0.04
32.818,-0.02,-0.01,-0.00,0.02
32.828,-0.02,0.01,-0.00,0.02
32.838,-0.01,0.00,-0.02,0.02
32.848,-0.00,-0.01,-0.02,0.02
32.858,-0.00,-0.01,0.02,0.02
32.868,0.01,0.01,0.01,0.02
32.878,0.01,0.02,0.01,0.03
32.888,-0.02,0.01,-0.00,0.02
32.899,-0.00,0.02,0.01,0.02
32.909,0.00,0.00,0.00,0.00
32.919,0.01,-0.02,-0.00,0.03
32.929,0.01,-0.03,-0.01,0.03
32.939,0.01,-0.00,-0.01,0.01
32.949,0.00,-0.00,-0.04,0.04
32.959,0.01,-0.02,-0.03,0.03
32.969,0.01,0.02,-0.02,0.03
32.979,0.00,0.00,0.00,0.01
32.989,-0.03,0.02,-0.04,0.05
32.999,-0.00,0.02,-0.03,0.04
33.009,0.02,0.01,-0.01,0.02
33.020,0.02,-0.03,0.03,0.04
33.029,-0.01,-0.04,0.06,0.07
33.040,-0.01,-0.02,0.07,0.07
33.050,-0.01,0.01,0.03,0.03
33.060,-0.03,0.04,-0.03,0.06
33.070,-0.01,0.05,-0.03,0.06
33.080,0.00,0.05,-0.02,0.05
33.090,0.00,0.05,0.00,0.05
33.100,-0.02,0.03,0.03,0.05
33.110,-0.02,0.03,0.03,0.05
33.120,-0.02,0.01,0.03,0.04
33.130,0.01,-0.02,0.04,0.05
33.140,-0.01,-0.02,0.05,0.05
33.150,0.00,-0.04,0.01,0.04
33.160,-0.00,-0.04,-0.01,0.04
33.170,0.01,-0.04,-0.03,0.05
33.181,0.02,-0.03,-0.04,0.05
33.191,0.02,-0.01,-0.03,0.04
33.201,0.03,0.01,-0.03,0.05
33.211,0.01,-0.00,-0.01,0.02
33.221,0.01,0.01,0.00,0.01
33.231,0.01,0.01,0.01,0.02
33.241,-0.02,0.01,0.02,0.03
33.251,-0.02,0.02,0.05,0.06
33.261,0.00,0.01,0.03,0.03
33.271,-0.00,0.01,0.01,0.02
33.281,-0.02,0.01,-0.02,0.03
33.291,0.01,0.01,-0.09,0.09
33.301,0.00,-0.02,-0.06,0.07
33.311,-0.00,-0.01,0.03,0.03
33.322,-0.04,-0.00,0.04,0.06
33.332,-0.04,0.02,0.03,0.06
33.342,-0.02,0.04,0.04,0.06
33.352,-0.00,0.02,0.08,0.08
33.362,-0.01,-0.00,0.04,0.05
33.372,-0.01,-0.00,0.01,0.02
33.382,-0.01,0.01,-0.02,0.03
33.392,-0.00,0.00,-0.03,0.03
33.402,0.01,-0.01,-0.02,0.02
33.412,-0.02,-0.00,-0.00,0.02
33.422,-0.01,-0.00,0.02,0.02
33.432,-0.00,-0.01,0.03,0.03
33.442,-0.02,-0.01,0.03,0.03
33.452,-0.00,-0.02,0.02,0.02
33.463,-0.01,-0.03,-0.02,0.03
33.473,0.02,-0.02,-0.02,0.03
33.483,0.03,-0.02,-0.02,0.04
33.493,0.02,-0.01,-0.03,0.04
33.503,-0.00,-0.01,-0.02,0.02
33.513,0.01,-0.00,-0.01,0.02
33.523,0.01,0.01,0.01,0.01
33.533,0.00,0.02,0.03,0.04
33.543,0.00,0.01,0.02,0.02
33.553,-0.00,0.00,0.01,0.01
33.563,-0.03,0.03,0.01,0.04
33.573,-0.03,0.02,0.01,0.04
33.583,-0.00,0.01,0.02,0.02
33.594,0.01,-0.00,-0.01,0.01
33.604,0.01,0.02,0.01,0.03
33.614,0.00,0.02,0.00,0.02
33.624,-0.01,0.01,0.00,0.01
33.634,-0.00,0.03,0.02,0.03
33.644,-0.02,0.03,0.03,0.04
33.654,0.01,0.00,0.00,0.01
33.664,0.01,-0.02,0.01,0.02
33.674,0.03,-0.03,-0.01,0.04
33.684,0.04,-0.04,-0.04,0.07
33.694,0.03,-0.03,-0.05,0.06
33.704,0.02,-0.04,-0.04,0.06
33.714,0.01,-0.02,-0.03,0.03
33.724,0.00,0.00,0.00,0.00
33.734,-0.01,0.01,0.03,0.03
33.745,0.00,0.03,0.06,0.07
33.754,-0.00,0.03,0.06,0.06
33.765,-0.02,0.03,0.02,0.04
33.775,-0.00,0.03,0.03,0.04
33.785,0.00,0.02,0.01,0.02
33.795,0.00,0.01,-0.00,0.01
33.805,-0.02,-0.02,-0.02,0.04
33.815,-0.03,-0.01,-0.06,0.06
33.825,-0.00,-0.00,-0.01,0.01
33.835,-0.02,-0.03,0.05,0.06
33.845,0.01,-0.04,0.08,0.09
33.855,0.00,-0.01,0.06,0.06
33.865,-0.00,0.02,0.04,0.04
33.875,0.01,0.03,-0.02,0.04
33.885,0.01,0.03,-0.02,0.04
33.896,-0.00,0.03,-0.00,0.03
33.906,0.01,0.04,0.02,0.04
33.916,-0.01,0.02,0.02,0.03
33.926,0.01,0.02,0.02,0.03
33.936,-0.00,-0.00,0.04,0.04
33.946,0.02,-0.04,0.02,0.05
33.956,-0.02,-0.04,-0.00,0.04
33.966,-0.01,-0.02,-0.02,0.03
33.976,0.01,-0.03,-0.03,0.05
33.986,0.01,-0.03,-0.01,0.04
33.996,0.02,-0.04,-0.02,0.05
34.006,0.02,-0.02,-0.03,0.04
34.016,0.03,0.01,-0.03,0.04
34.027,0.01,0.03,0.00,0.03
34.037,-0.01,0.01,0.03,0.03
34.047,0.00,0.01,0.02,0.02
34.057,-0.02,0.02,0.04,0.05
34.067,-0.03,0.03,0.06,0.07
34.077,-0.03,0.03,0.02,0.04
34.087,-0.02,0.00,-0.02,0.03
34.097,-0.03,0.01,-0.06,0.07
34.107,-0.02,0.00,-0.10,0.10
34.117,-0.02,0.00,-0.01,0.02
34.127,-0.03,0.01,0.06,0.06
34.137,-0.04,0.03,0.07,0.08
34.147,-0.04,0.04,0.05,0.08
34.157,-0.02,0.05,0.07,0.09
34.168,0.00,0.02,0.05,0.06
34.177,-0.00,-0.01,0.01,0.01
34.188,0.00,-0.04,-0.04,0.06
34.198,0.03,-0.05,-0.08,0.09
34.208,0.01,-0.04,-0.05,0.06
34.218,0.00,-0.02,-0.03,0.04
34.228,0.00,-0.01,0.01,0.01
34.238,0.01,0.01,0.03,0.03
34.248,-0.01,0.01,0.04,0.04
34.258,0.01,0.00,0.03,0.03
34.268,0.02,0.00,0.02,0.03
34.278,0.03,-0.00,-0.01,0.03
34.288,0.02,-0.02,-0.05,0.05
34.298,0.02,-0.02,-0.03,0.05
34.308,0.02,-0.00,-0.02,0.03
34.318,-0.00,-0.00,-0.02,0.02
34.329,-0.01,0.01,-0.01,0.02
34.339,-0.02,0.03,0.02,0.04
34.349,-0.02,0.03,0.03,0.04
34.359,-0.00,0.02,0.03,0.04
34.369,-0.01,0.00,0.02,0.02
34.379,-0.02,0.00,0.01,0.02
34.389,-0.00,0.02,-0.01,0.02
34.399,-0.00,0.00,-0.00,0.01
34.409,-0.01,-0.01,-0.00,0.01
34.419,-0.01,0.01,0.01,0.02
34.429,-0.02,0.02,0.01,0.03
34.439,-0.01,0.02,0.01,0.02
34.449,-0.01,0.02,0.02,0.03
34.459,-0.02,0.01,0.01,0.02
34.470,-0.00,0.01,0.02,0.02
34.480,0.01,-0.01,0.02,0.03
34.490,0.02,-0.03,0.00,0.04
34.500,0.02,-0.02,-0.02,0.04
34.510,-0.00,-0.03,-0.04,0.05
34.520,-0.01,-0.02,-0.05,0.05
34.530,0.00,-0.01,0.01,0.02
34.540,-0.01,0.02,0.00,0.02
34.550,0.02,-0.01,-0.00,0.02
34.560,0.00,-0.00,-0.00,0.01
34.570,0.00,0.01,0.01,0.01
34.580,0.01,0.02,-0.02,0.03
34.590,0.01,0.01,0.01,0.02
34.600,-0.01,0.01,0.03,0.03
34.611,-0.03,0.02,0.02,0.04
34.621,-0.00,-0.01,-0.02,0.03
34.631,0.01,-0.01,-0.01,0.01
34.641,0.00,-0.01,0.01,0.01
34.651,0.01,-0.04,0.06,0.07
34.661,-0.00,-0.03,0.08,0.08
34.671,0.01,-0.02,0.04,0.04
34.681,0.01,0.02,0.01,0.03
34.691,-0.01,0.03,-0.02,0.04
34.701,-0.02,0.03,0.00,0.03
34.711,-0.01,0.02,0.00,0.02
34.721,-0.00,0.03,0.02,0.04
34.731,-0.01,0.03,0.02,0.04
34.742,-0.00,-0.00,0.05,0.05
34.752,-0.00,-0.03,0.04,0.05
34.761,0.02,-0.03,0.01,0.04
34.772,0.00,-0.04,-0.01,0.04
34.782,0.03,-0.04,-0.02,0.05
34.792,0.01,-0.01,-0.01,0.02
34.802,0.01,-0.01,0.00,0.02
34.812,-0.01,-0.00,-0.03,0.03
34.822,0.00,-0.01,-0.03,0.03
34.832,0.02,0.01,-0.00,0.02
34.842,0.02,0.01,0.03,0.04
34.852,0.03,-0.04,-0.06,0.08
34.862,-0.02,0.02,0.03,0.04
34.872,-0.04,0.02,0.04,0.06
34.882,-0.01,0.02,0.02,0.03
34.893,-0.03,0.02,0.05,0.06
34.903,-0.02,0.01,-0.01,0.03
34.913,0.01,0.01,-0.06,0.07
34.923,0.00,-0.00,-0.08,0.08
34.933,-0.00,-0.02,0.02,0.02
34.943,-0.01,-0.00,0.08,0.08
34.953,-0.01,0.01,0.04,0.04
34.963,-0.03,0.03,0.02,0.04
34.973,-0.01,0.04,0.02,0.05
34.983,-0.01,0.01,0.03,0.03
34.993,-0.02,-0.00,0.01,0.02
35.003,0.00,-0.00,-0.01,0.01
35.013,0.00,-0.00,-0.00,0.01
35.024,0.00,-0.01,0.00,0.01
35.034,0.01,-0.02,-0.01,0.03
35.044,-0.00,-0.03,-0.01,0.03
35.054,-0.01,-0.04,0.01,0.04
35.064,-0.01,-0.02,0.04,0.04
35.074,-0.01,-0.00,0.03,0.04
35.084,-0.01,-0.00,0.00,0.01
35.094,0.02,0.00,0.01,0.02
35.104,0.02,-0.00,0.00,0.02
35.114,0.02,-0.01,-0.02,0.03
35.124,0.01,0.02,-0.03,0.04
35.134,0.00,0.01,-0.01,0.02
35.144,0.00,0.02,-0.00,0.02
35.154,-0.01,-0.00,0.02,0.03
35.164,0.01,-0.00,0.01,0.02
35.174,-0.01,0.01,0.00,0.02
35.184,-0.01,0.02,-0.01,0.02
35.195,-0.01,0.01,0.02,0.02
35.205,-0.02,0.01,0.03,0.04
35.215,-0.01,0.00,0.04,0.04
35.225,-0.01,-0.00,-0.01,0.02
35.235,-0.01,-0.00,-0.01,0.02
35.245,0.00,-0.01,-0.00,0.01
35.255,-0.01,-0.03,-0.01,0.03
35.265,0.02,-0.03,-0.01,0.03
35.275,0.01,0.00,-0.00,0.01
35.285,-0.00,0.00,0.01,0.01
35.295,-0.01,0.02,-0.00,0.02
35.305,-0.01,0.01,-0.01,0.01
35.315,-0.00,0.00,0.01,0.01
35.325,0.01,0.01,0.03,0.03
35.336,0.00,0.01,0.01,0.01
35.346,-0.00,0.02,-0.01,0.02
35.356,-0.01,0.01,-0.01,0.02
35.366,0.00,-0.00,-0.01,0.01
35.376,-0.01,-0.00,-0.01,0.01
35.386,-0.03,-0.00,-0.02,0.04
35.396,-0.02,0.00,-0.01,0.02
35.406,-0.02,-0.01,-0.01,0.02
35.416,0.03,-0.02,0.02,0.04
35.426,0.01,-0.03,0.08,0.08
35.436,0.00,-0.03,0.08,0.08
35.446,0.02,0.00,0.03,0.03
35.456,0.00,0.02,-0.03,0.04
35.466,0.00,0.01,-0.06,0.06
35.477,0.00,0.01,-0.03,0.03
35.487,0.00,0.02,-0.00,0.02
35.497,-0.00,0.03,0.01,0.03
35.507,0.02,0.02,0.02,0.04
35.517,0.02,-0.01,0.03,0.03
35.527,0.01,-0.02,0.03,0.03
35.537,0.00,-0.04,0.02,0.04
35.547,0.01,-0.03,-0.02,0.04
35.557,0.01,-0.03,-0.02,0.04
35.567,0.01,-0.02,-0.01,0.03
35.577,0.00,-0.01,0.00,0.01
35.587,0.01,0.00,-0.01,0.01
35.598,0.01,-0.00,-0.01,0.01
35.608,-0.01,-0.01,-0.01,0.02
35.618,-0.00,-0.02,-0.01,0.02
35.628,0.00,0.00,-0.00,0.01
35.638,-0.01,0.02,0.01,0.03
35.648,-0.02,0.03,0.04,0.05
35.658,-0.03,0.04,0.05,0.07
35.668,-0.04,0.02,0.03,0.06
35.678,-0.01,0.01,-0.03,0.04
35.688,0.01,0.01,-0.07,0.07
35.698,-0.01,-0.02,-0.03,0.04
35.708,0.00,-0.03,0.04,0.05
35.718,-0.00,-0.02,0.03,0.04
35.728,-0.01,-0.01,-0.02,0.02
35.738,-0.02,0.02,-0.00,0.03
35.748,-0.00,0.01,0.02,0.02
35.759,0.00,0.00,0.02,0.02
35.769,-0.01,0.02,0.02,0.03
35.779,0.00,0.01,0.02,0.02
35.789,0.02,-0.01,0.01,0.02
35.799,0.02,0.00,-0.00,0.02
35.809,0.02,-0.04,-0.01,0.04
35.819,-0.01,-0.03,-0.01,0.03
35.829,0.00,-0.01,-0.01,0.02
35.839,-0.01,-0.00,0.02,0.02
35.849,-0.01,0.03,0.02,0.04
35.859,-0.02,0.03,0.02,0.04
35.869,-0.01,0.01,0.01,0.02
35.879,0.00,0.00,0.00,0.01
35.889,-0.00,-0.00,-0.01,0.01
35.900,-0.00,-0.00,-0.00,0.01
35.910,0.01,-0.00,-0.01,0.01
35.920,-0.01,0.00,-0.00,0.01
35.930,0.00,0.02,0.02,0.02
35.940,-0.01,0.02,0.02,0.03
35.950,-0.01,0.01,0.00,0.01
35.960,-0.01,0.03,0.00,0.03
35.970,-0.02,0.02,0.02,0.03
35.980,0.01,-0.02,0.01,0.02
35.990,-0.00,-0.00,0.03,0.03
36.000,0.00,-0.02,-0.01,0.03
36.010,0.02,-0.02,-0.03,0.04
36.020,0.00,-0.02,-0.03,0.04
36.030,0.00,0.00,-0.03,0.03
36.041,-0.01,0.02,-0.02,0.03
36.051,-0.00,0.02,0.03,0.04
36.061,-0.00,0.03,0.05,0.06
36.071,-0.02,0.01,0.05,0.05
36.081,-0.02,0.00,0.03,0.04
36.091,-0.00,-0.00,0.02,0.02
36.101,0.00,-0.02,0.02,0.03
36.111,0.02,-0.01,-0.01,0.02
36.121,0.01,-0.01,-0.05,0.05
36.131,0.00,-0.02,-0.02,0.03
36.141,0.00,0.00,-0.01,0.01
36.151,0.01,0.01,-0.02,0.02
36.161,0.00,0.02,-0.01,0.02
36.171,-0.01,0.00,0.04,0.04
36.182,-0.01,0.01,0.04,0.04
36.191,0.00,0.02,0.01,0.03
36.202,-0.01,0.01,0.02,0.03
36.212,-0.01,0.00,0.05,0.05
36.222,0.01,-0.00,0.01,0.01
36.232,-0.02,0.00,-0.03,0.04
36.242,-0.00,0.00,-0.06,0.06
36.252,0.02,0.01,-0.01,0.02
36.262,0.00,-0.03,0.02,0.03
36.272,0.00,-0.04,0.06,0.07
36.282,-0.00,-0.02,0.05,0.05
36.292,-0.00,0.01,-0.01,0.01
36.302,-0.00,0.02,-0.03,0.04
36.312,0.00,0.01,-0.04,0.04
36.322,0.02,0.01,-0.02,0.03
36.332,0.03,0.02,0.00,0.03
36.343,0.02,0.01,-0.00,0.02
36.353,-0.01,0.03,0.03,0.04
36.363,-0.02,-0.00,0.04,0.05
36.373,-0.03,-0.01,0.04,0.05
36.383,-0.02,0.00,0.04,0.04
36.393,-0.01,-0.01,0.02,0.02
36.403,0.02,0.01,0.01,0.02
36.413,0.01,-0.00,-0.00,0.01
36.423,0.02,-0.02,-0.02,0.03
36.433,0.01,-0.01,-0.03,0.03
36.443,0.01,-0.01,-0.04,0.05
36.453,0.01,-0.01,-0.04,0.05
36.463,0.00,-0.01,-0.02,0.03
36.473,-0.01,0.00,0.01,0.01
36.484,-0.03,0.03,0.03,0.05
36.494,-0.02,0.05,0.05,0.07
36.504,-0.02,0.02,0.05,0.06
36.514,-0.01,0.01,0.01,0.02
36.524,-0.02,0.01,-0.06,0.06
36.534,0.02,-0.00,-0.07,0.07
36.544,0.01,-0.02,0.00,0.02
36.554,0.00,-0.02,0.04,0.05
36.564,-0.01,0.00,-0.01,0.02
36.574,-0.03,0.02,0.01,0.04
36.584,-0.01,0.03,0.01,0.03
36.594,-0.02,0.02,0.03,0.04
36.604,-0.01,0.02,0.05,0.06
36.614,-0.00,0.01,0.04,0.04
36.625,0.01,0.02,0.02,0.03
36.635,-0.00,0.01,0.00,0.02
36.645,0.01,-0.01,-0.01,0.02
36.655,0.01,-0.02,-0.02,0.03
36.665,-0.01,-0.03,0.00,0.03
36.675,-0.01,-0.01,0.01,0.02
36.685,-0.00,-0.00,0.03,0.03
36.695,-0.01,0.01,0.01,0.02
36.705,0.00,-0.00,0.01,0.01
36.715,0.01,-0.02,-0.00,0.02
36.725,0.01,-0.01,-0.02,0.03
36.735,0.02,-0.01,-0.03,0.03
36.745,0.01,-0.02,-0.05,0.05
36.755,0.01,-0.00,-0.02,0.02
36.766,0.01,0.01,-0.02,0.02
36.776,-0.00,0.00,-0.01,0.01
36.786,-0.01,-0.00,0.00,0.01
36.796,-0.02,0.01,0.01,0.03
36.806,-0.00,0.00,-0.01,0.01
36.816,-0.01,0.02,0.01,0.02
36.826,-0.01,0.01,0.03,0.03
36.836,-0.02,0.01,0.03,0.04
36.846,0.01,-0.01,0.07,0.08
36.856,0.01,-0.00,0.08,0.09
36.866,-0.05,0.07,-0.11,0.14
36.876,-0.02,0.04,-0.06,0.08
36.886,-0.02,0.04,0.04,0.06
36.896,-0.00,-0.00,0.07,0.08
36.907,-0.02,-0.01,0.01,0.02
36.917,-0.02,0.01,-0.01,0.03
36.927,-0.01,0.01,-0.01,0.02
36.937,0.00,-0.01,-0.00,0.02
36.947,-0.01,-0.01,-0.01,0.02
36.957,0.00,0.01,-0.01,0.02
36.967,0.02,-0.00,-0.02,0.03
36.977,0.00,-0.02,-0.02,0.03
36.987,0.01,-0.01,-0.00,0.02
36.997,0.03,-0.02,0.01,0.03
37.007,0.03,-0.02,-0.00,0.04
37.017,0.01,-0.01,0.02,0.02
37.027,-0.00,0.02,0.01,0.02
37.037,-0.01,0.02,-0.01,0.02
37.048,0.00,0.01,-0.01,0.01
37.058,0.00,-0.00,0.02,0.02
37.068,0.00,0.01,0.02,0.02
37.078,0.00,0.00,0.02,0.02
37.088,0.01,-0.00,-0.00,0.01
37.098,-0.00,0.02,-0.00,0.02
37.108,-0.00,0.01,-0.03,0.03
37.118,-0.00,0.04,-0.01,0.04
37.128,-0.01,0.03,0.04,0.05
37.138,-0.00,0.02,0.05,0.05
37.148,-0.01,0.00,-0.00,0.01
37.158,-0.01,-0.02,-0.05,0.06
37.168,0.02,-0.03,-0.00,0.03
37.178,0.03,-0.02,0.05,0.06
37.189,0.01,-0.02,0.08,0.08
37.198,0.01,-0.01,0.03,0.03
37.209,0.01,0.01,-0.01,0.02
37.219,0.00,0.04,-0.03,0.05
37.229,0.00,0.04,-0.03,0.05
37.239,0.02,0.03,-0.03,0.05
37.249,0.00,0.02,0.00,0.02
37.259,0.01,0.00,0.03,0.03
37.269,0.01,0.00,0.04,0.04
37.279,-0.00,-0.01,0.03,0.04
37.289,0.00,-0.02,0.01,0.03
37.299,-0.01,-0.03,0.01,0.03
37.309,-0.00,-0.01,0.00,0.01
37.319,-0.00,-0.00,0.01,0.01
37.329,-0.01,-0.01,0.02,0.03
37.340,0.00,-0.00,0.00,0.00
37.350,-0.01,-0.01,0.00,0.01
37.360,-0.01,-0.02,-0.01,0.03
37.370,0.02,-0.02,-0.01,0.03
37.380,0.00,-0.01,0.01,0.01
37.390,0.00,-0.00,0.01,0.01
37.400,-0.01,0.02,0.03,0.04
37.410,-0.03,0.02,0.02,0.03
37.420,-0.02,0.01,0.01,0.02
37.430,-0.02,0.02,0.02,0.03
37.440,-0.01,0.01,-0.04,0.04
37.450,-0.01,0.02,-0.07,0.08
37.460,-0.00,0.01,-0.04,0.04
37.470,-0.01,-0.02,0.05,0.05
37.480,-0.01,0.01,0.06,0.06
37.491,-0.02,0.02,-0.00,0.03
37.501,-0.02,0.04,-0.00,0.04
37.511,-0.02,0.04,0.05,0.07
37.521,-0.00,-0.00,0.05,0.05
37.531,0.00,-0.00,0.02,0.02
37.541,-0.01,0.02,-0.00,0.02
37.551,0.01,0.02,0.01,0.02
37.561,0.01,-0.02,0.01,0.02
37.571,-0.00,-0.03,-0.01,0.03
37.581,0.01,-0.02,-0.00,0.02
37.591,-0.01,-0.02,0.01,0.03
37.601,0.00,-0.01,-0.01,0.02
37.611,-0.00,0.01,-0.00,0.01
37.622,0.01,-0.00,-0.02,0.03
37.632,0.00,0.00,-0.01,0.01
37.642,0.00,0.00,0.01,0.01
37.652,0.01,0.01,-0.02,0.02
37.662,0.02,0.01,-0.02,0.03
37.672,0.01,-0.01,-0.01,0.01
37.682,0.01,-0.01,-0.01,0.02
37.692,0.01,-0.00,-0.00,0.01
37.702,-0.02,-0.00,0.01,0.03
37.712,-0.01,0.01,0.02,0.03
37.722,-0.02,0.00,0.01,0.02
37.732,0.00,-0.02,0.05,0.05
37.742,0.04,-0.04,0.05,0.07
37.752,0.04,-0.05,0.01,0.06
37.762,0.09,-0.01,-0.17,0.19
37.773,0.03,0.05,-0.22,0.23
37.782,-0.09,0.06,-0.07,0.13
37.793,-0.15,0.13,0.28,0.35
37.803,-0.11,0.13,0.10,0.20
37.813,-0.04,0.03,-0.10,0.11
37.823,-0.10,-0.00,-0.22,0.24
37.833,0.04,-0.01,-0.18,0.19
37.843,0.09,-0.17,-0.44,0.48
37.853,0.06,-0.15,-0.51,0.53
37.863,0.05,0.04,-0.39,0.39
37.873,-0.04,0.01,-0.16,0.16
37.883,-0.09,-0.10,0.03,0.14
37.893,-0.20,-0.17,0.09,0.28
37.903,-0.12,-0.08,0.02,0.15
37.914,-0.03,0.02,-0.02,0.04
37.924,-0.03,-0.00,-0.11,0.12
37.934,0.09,0.01,-0.38,0.39
37.944,0.01,0.09,-0.72,0.72
37.954,0.06,-0.00,-1.06,1.07
37.964,-0.05,-0.08,-1.22,1.23
37.974,-0.29,-0.14,-1.16,1.20
37.984,-0.44,-0.55,-0.97,1.20
37.994,-1.00,-1.03,-0.59,1.55
38.004,-1.15,-1.17,-0.05,1.64
38.014,-1.08,-1.32,0.19,1.72
38.024,-1.40,-1.32,0.12,1.93
38.034,-1.58,-1.42,-0.04,2.12
38.044,-1.73,-1.56,-0.29,2.34
38.055,-1.88,-1.76,-0.61,2.65
38.064,-1.85,-2.01,-0.71,2.83
38.075,-1.63,-2.13,-0.76,2.79
38.085,-1.28,-1.88,-1.21,2.58
38.095,-0.97,-1.25,-1.92,2.49
38.105,-0.72,-0.99,-2.43,2.72
38.115,-0.70,-1.09,-2.88,3.16
38.125,-0.95,-1.25,-3.02,3.41
38.135,-1.23,-1.48,-2.93,3.51
38.145,-1.50,-1.67,-2.74,3.54
38.155,-1.65,-1.67,-2.47,3.41
38.165,-1.63,-1.70,-2.26,3.26
38.176,-1.50,-1.69,-2.08,3.08
38.186,-1.23,-1.76,-1.88,2.85
38.196,-0.91,-1.89,-1.82,2.78
38.206,-0.92,-1.92,-1.59,2.66
38.216,-1.03,-2.05,-1.42,2.70
38.226,-1.28,-2.05,-1.12,2.67
38.236,-1.38,-2.14,-0.94,2.71
38.246,-1.37,-2.15,-0.95,2.72
38.256,-1.28,-2.17,-1.06,2.73
38.266,-1.03,-2.12,-1.27,2.68
38.276,-0.65,-2.13,-1.49,2.68
38.286,-0.54,-2.03,-1.54,2.60
38.296,-0.57,-2.08,-1.41,2.58
38.306,-0.96,-2.33,-1.32,2.84
38.316,-1.44,-2.52,-1.15,3.12
38.326,-1.97,-2.69,-0.91,3.46
38.337,-2.29,-2.89,-0.54,3.72
38.347,-2.43,-3.09,-0.10,3.93
38.357,-2.26,-3.03,0.23,3.79
38.367,-1.44,-2.71,0.12,3.07
38.377,-0.62,-2.02,-0.37,2.15
38.387,-0.24,-1.62,-0.65,1.76
38.397,-0.55,-1.80,-0.65,1.99
38.407,-1.21,-2.22,-0.73,2.64
38.417,-1.68,-2.53,-0.96,3.19
38.427,-1.98,-2.74,-1.32,3.63
38.437,-2.15,-2.91,-1.36,3.86
38.447,-2.08,-2.96,-1.05,3.77
38.457,-1.59,-2.88,-0.70,3.36
38.467,-1.08,-2.55,-0.73,2.86
38.478,-0.52,-2.32,-0.90,2.54
38.488,-0.27,-2.18,-0.92,2.39
38.498,-0.35,-2.25,-0.83,2.42
38.508,-0.48,-2.42,-0.63,2.55
38.518,-0.61,-2.46,-0.19,2.54
38.528,-0.60,-2.40,0.26,2.49
38.538,-0.41,-2.31,0.68,2.44
38.548,-0.20,-2.24,0.84,2.40
38.558,-0.27,-2.11,0.60,2.21
38.568,-0.18,-2.02,0.05,2.03
38.578,-0.08,-1.91,-0.12,1.91
38.588,-0.14,-1.85,0.10,1.86
38.598,-0.19,-1.79,0.53,1.88
38.608,-0.21,-1.80,0.48,1.87
38.618,-0.34,-1.83,-0.50,1.92
38.629,-0.72,-1.38,-1.20,1.97
38.639,-0.35,-1.20,-1.50,1.95
38.649,0.05,-0.95,-1.32,1.63
38.659,0.67,-0.85,-0.43,1.16
38.669,1.57,-0.98,0.21,1.87
38.679,2.39,-1.11,0.74,2.74
38.689,2.90,-1.08,1.18,3.31
38.699,2.67,-1.13,1.49,3.26
38.709,1.89,-1.20,1.87,2.92
38.719,1.21,-1.30,2.05,2.71
38.729,0.78,-1.43,1.81,2.43
38.739,0.51,-1.46,1.28,2.01
38.749,0.45,-1.31,0.66,1.53
38.759,0.40,-1.04,0.29,1.15
38.769,0.36,-0.89,0.25,0.99
38.780,0.38,-0.95,0.28,1.06
38.790,0.46,-0.75,0.78,1.18
38.800,0.80,-0.46,1.06,1.41
38.810,1.17,-0.47,0.88,1.54
38.820,1.57,-0.58,0.43,1.73
38.830,2.00,-0.40,0.34,2.07
38.840,2.18,0.16,1.73,2.79
38.850,1.89,0.49,3.53,4.03
38.860,1.30,0.36,4.45,4.65
38.870,0.93,0.04,4.41,4.51
38.880,0.69,-0.24,3.53,3.60
38.890,0.70,-0.19,2.29,2.40
38.900,1.01,-0.05,1.28,1.63
38.910,1.17,-0.11,0.88,1.47
38.921,0.73,-0.32,1.01,1.29
38.931,0.08,-0.44,1.34,1.41
38.941,-0.46,-0.35,1.75,1.84
38.951,-0.38,-0.24,1.96,2.01
38.961,0.09,-0.33,1.70,1.73
38.971,0.68,-0.17,1.37,1.54
38.981,1.13,0.40,1.61,2.01
38.991,1.44,0.91,2.21,2.79
39.001,1.68,1.03,2.40,3.10
39.011,1.51,0.83,2.08,2.70
39.021,1.27,0.43,1.45,1.97
39.031,1.32,0.15,0.64,1.47
39.041,1.28,0.11,-0.09,1.29
39.051,1.21,-0.07,-0.73,1.42
39.062,0.95,-0.23,-1.36,1.67
39.071,0.62,-0.30,-1.67,1.81
39.082,0.43,-0.45,-1.48,1.61
39.092,0.39,-0.76,-1.52,1.74
39.102,0.06,-1.00,-1.84,2.10
39.112,-0.30,-1.45,-2.03,2.51
39.122,-0.52,-1.72,-1.41,2.28
39.132,-1.15,-1.02,-1.60,2.22
39.142,-1.41,-0.25,-0.91,1.69
39.152,-0.38,-0.28,0.57,0.75
39.162,0.79,-1.22,1.15,1.85
39.172,1.50,-1.52,1.08,2.39
39.182,1.82,-1.48,0.64,2.43
39.192,1.50,-1.40,0.39,2.09
39.203,0.73,-1.01,0.04,1.25
39.213,-0.19,-0.79,-0.36,0.89
