time,ax,ay,az,atotal
0.000,0.34,0.21,0.02,0.40
0.010,0.46,0.39,-0.46,0.76
0.020,0.22,0.28,-0.76,0.83
0.030,-0.16,0.10,-0.66,0.69
0.040,-0.52,-0.07,-0.24,0.57
0.050,-0.85,-0.25,0.28,0.93
0.060,-0.79,-0.37,0.75,1.15
0.070,-0.37,-0.44,1.13,1.27
0.080,0.09,-0.46,1.37,1.45
0.091,0.33,-0.31,1.43,1.50
0.100,0.43,-0.14,1.26,1.34
0.111,0.44,-0.06,1.00,1.10
0.121,0.36,-0.01,0.84,0.91
0.131,0.19,0.06,0.77,0.80
0.141,0.26,0.12,0.59,0.66
0.151,0.40,-0.03,0.11,0.42
0.161,0.44,-0.11,-0.27,0.53
0.171,0.32,-0.03,-0.47,0.57
0.181,0.02,-0.08,-0.50,0.51
0.191,-0.39,-0.26,-0.40,0.61
0.201,-0.78,-0.36,-0.12,0.86
0.211,-1.03,-0.45,0.10,1.13
0.221,-0.98,-0.48,0.06,1.09
0.231,-0.79,-0.38,-0.09,0.88
0.242,-0.55,-0.13,-0.21,0.60
0.252,-0.39,0.10,-0.11,0.42
0.262,-0.25,0.05,0.18,0.31
0.272,-0.19,-0.15,0.60,0.65
0.282,-0.06,-0.35,0.86,0.93
0.292,0.04,-0.20,0.90,0.93
0.302,0.16,0.13,0.74,0.77
0.312,0.27,0.25,0.38,0.53
0.322,0.32,0.19,0.08,0.38
0.332,0.23,0.13,0.32,0.41
0.342,0.08,-0.06,0.77,0.78
0.352,-0.10,-0.36,0.95,1.02
0.362,-0.14,-0.43,1.03,1.13
0.372,0.00,-0.33,1.16,1.21
0.382,-0.32,-0.37,1.54,1.61
0.393,-1.39,0.03,2.27,2.66
0.403,-1.13,-0.30,2.09,2.39
0.413,-1.37,-1.09,1.93,2.60
0.423,-1.66,-1.47,2.15,3.09
0.433,-1.78,-1.78,2.31,3.42
0.443,-1.41,-1.57,2.38,3.18
0.453,-0.70,-1.43,2.19,2.71
0.463,-0.37,-1.40,2.17,2.61
0.473,-0.22,-1.31,2.23,2.59
0.483,-0.54,-1.16,2.48,2.79
0.493,-1.25,-0.62,2.91,3.23
0.503,-0.76,-0.62,3.01,3.17
0.513,0.16,-1.02,2.84,3.02
0.523,0.52,-1.15,2.75,3.02
0.533,0.46,-1.35,2.74,3.09
0.544,-0.35,-1.24,2.90,3.17
0.554,-1.02,-1.36,2.88,3.34
0.564,-1.25,-1.38,2.43,3.06
0.574,-0.96,-1.05,1.79,2.29
0.584,-0.41,-0.36,1.09,1.22
0.594,0.09,0.04,0.78,0.79
0.604,0.61,0.51,0.61,1.00
0.614,0.71,0.61,0.35,1.00
0.624,0.19,-0.06,0.33,0.39
0.634,-0.56,-0.57,0.76,1.10
0.644,-0.78,-0.86,1.05,1.56
0.654,-0.82,-0.40,1.32,1.60
0.664,-0.31,-0.38,1.38,1.47
0.674,0.01,-0.48,1.21,1.30
0.685,-0.13,-0.39,1.03,1.11
0.695,-0.41,-0.36,0.74,0.92
0.705,-0.59,-0.69,0.46,1.02
0.715,-0.55,-1.08,0.42,1.28
0.725,0.17,-1.03,0.43,1.13
0.735,0.77,-0.82,0.35,1.17
0.745,0.80,-0.82,0.32,1.19
0.755,0.53,-0.60,0.24,0.83
0.765,0.17,-0.43,0.10,0.47
0.775,-0.11,-0.54,0.05,0.55
0.785,-0.27,-0.92,0.20,0.98
0.795,-0.14,-1.07,0.37,1.14
0.805,0.07,-0.87,0.46,0.98
0.815,0.12,-0.36,0.50,0.63
0.826,0.31,0.19,0.49,0.61
0.836,0.44,0.08,0.48,0.65
0.846,0.15,-0.10,0.49,0.52
0.856,0.42,-0.79,0.62,1.09
0.866,0.77,-1.44,1.17,2.01
0.876,0.03,-1.87,2.40,3.05
0.886,-2.32,-2.21,4.29,5.35
0.896,-3.15,-0.53,4.69,5.67
0.906,-1.35,0.28,3.10,3.39
0.916,0.61,-1.90,0.99,2.23
0.926,1.20,-3.02,0.03,3.25
0.936,0.79,-2.27,-0.47,2.45
0.946,0.42,-2.17,-0.81,2.36
0.956,-0.05,-2.18,-1.07,2.43
0.966,-0.32,-2.04,-1.17,2.37
0.977,0.01,-2.14,-1.09,2.40
0.987,0.64,-1.97,-1.15,2.37
0.997,0.97,-1.68,-1.15,2.26
1.007,1.05,-1.40,-1.10,2.07
1.017,0.82,-0.96,-1.00,1.61
1.027,0.21,-0.90,-0.78,1.21
1.037,-0.16,-1.08,-0.49,1.20
1.047,0.01,-0.93,-0.40,1.01
1.057,0.20,-0.60,-0.45,0.77
1.067,0.16,-0.57,-0.64,0.87
1.077,0.13,-0.98,-0.92,1.34
1.087,-0.20,-1.13,-1.16,1.63
1.097,-0.75,-0.88,-1.27,1.72
1.107,-0.78,-0.74,-1.42,1.78
1.117,-0.70,-0.70,-1.69,1.96
1.127,-0.85,-0.54,-1.92,2.16
1.138,-1.12,-0.57,-2.03,2.39
1.148,-1.28,-0.66,-2.13,2.57
1.158,-1.27,-0.41,-2.50,2.83
1.168,-0.99,0.09,-2.37,2.57
1.178,-0.26,-0.02,-2.55,2.56
1.188,0.50,-0.13,-2.69,2.74
1.198,0.89,-0.12,-2.29,2.46
1.208,0.80,0.05,-1.78,1.95
1.218,0.16,0.20,-1.51,1.53
1.228,-0.82,0.30,-1.41,1.66
1.238,-1.34,0.33,-1.43,1.99
1.248,-1.47,0.43,-1.34,2.03
1.258,-1.08,0.20,-1.44,1.81
1.269,-0.61,-0.03,-1.47,1.59
1.279,-0.20,0.00,-0.97,0.99
1.289,0.20,-0.06,-0.34,0.40
1.299,0.19,0.21,0.11,0.30
1.309,-0.14,0.49,0.27,0.58
1.319,-0.35,0.34,0.17,0.52
1.329,-0.43,0.25,0.01,0.50
1.339,-0.35,0.10,-0.12,0.38
1.349,-0.24,-0.08,0.14,0.28
1.359,-0.19,0.11,0.42,0.47
1.369,-0.20,0.39,0.60,0.75
1.379,-0.23,0.39,0.76,0.88
1.389,-0.22,0.56,0.85,1.04
1.399,-0.20,0.77,0.92,1.22
1.409,-0.17,0.91,0.73,1.18
1.420,-0.28,0.74,0.19,0.81
1.429,-0.69,0.84,-0.41,1.16
1.440,-1.01,1.11,-0.92,1.77
1.450,-0.75,1.17,-1.23,1.85
1.460,-0.54,1.24,-1.37,1.93
1.470,-0.24,1.20,-1.37,1.84
1.480,0.01,0.91,-1.17,1.49
1.490,0.01,0.82,-0.90,1.22
1.500,-0.12,1.08,-0.83,1.37
1.510,-0.44,1.45,-1.10,1.87
1.520,-0.81,1.52,-1.99,2.63
1.530,-1.25,1.49,-2.85,3.45
1.540,-1.19,0.71,-3.54,3.80
1.550,-0.67,-0.07,-3.46,3.52
1.560,-0.10,-0.45,-2.27,2.32
1.571,0.61,-0.74,-0.71,1.20
1.581,1.32,-0.77,0.36,1.57
1.591,1.97,-0.56,1.02,2.28
1.601,2.16,-0.16,1.49,2.63
1.611,1.79,0.39,1.43,2.33
1.621,1.52,0.70,1.01,1.95
1.631,1.16,0.68,0.15,1.36
1.641,0.59,0.63,-0.94,1.28
1.651,0.03,0.75,-2.25,2.38
1.661,-0.57,0.69,-3.34,3.46
1.671,-0.41,-0.19,-4.43,4.46
1.681,-0.37,-0.55,-5.50,5.54
1.691,-0.82,-0.38,-5.15,5.23
1.701,-0.94,-0.42,-4.29,4.41
1.711,-0.54,-0.56,-3.96,4.03
1.722,0.16,-1.08,-3.65,3.81
1.732,0.19,-1.47,-3.04,3.39
1.742,-0.09,-1.50,-2.45,2.88
1.752,0.01,-1.69,-2.16,2.74
1.762,0.27,-2.00,-2.01,2.85
1.772,0.53,-2.24,-1.70,2.87
1.782,0.90,-2.45,-1.18,2.86
1.792,1.41,-2.84,-0.60,3.23
1.802,1.49,-2.78,0.21,3.16
1.812,1.33,-2.57,0.99,3.06
1.822,1.22,-2.24,1.62,3.02
1.832,1.25,-1.86,1.96,2.98
1.842,1.13,-1.52,2.20,2.90
1.852,0.84,-1.48,2.46,2.99
1.862,0.54,-1.73,2.74,3.28
1.873,0.11,-1.72,3.05,3.50
1.883,-0.20,-1.57,3.40,3.75
1.893,-0.27,-1.63,3.65,4.01
1.903,-0.49,-1.64,3.70,4.07
1.913,-0.78,-1.85,3.65,4.16
1.923,-1.26,-1.90,3.63,4.28
1.933,-1.70,-1.59,3.58,4.27
1.943,-1.72,-1.19,3.39,3.98
1.953,-1.70,-0.74,3.03,3.55
1.963,-1.79,-0.71,2.80,3.40
1.973,-1.57,-1.08,2.77,3.36
1.983,-1.34,-1.33,3.13,3.65
1.993,-1.12,-1.28,3.96,4.31
2.003,-0.54,-0.89,4.59,4.70
2.013,0.24,-0.19,4.59,4.60
2.024,0.69,0.18,4.29,4.35
2.034,0.70,0.22,3.96,4.03
2.044,0.27,0.36,3.90,3.93
2.054,-0.48,0.27,4.13,4.17
2.064,-1.05,-0.12,4.38,4.51
2.074,-1.07,-0.08,4.60,4.72
2.084,-0.40,0.56,4.30,4.36
2.094,0.15,1.12,3.70,3.87
2.104,0.46,1.35,3.05,3.36
2.114,0.54,1.22,2.26,2.62
2.124,0.39,0.94,1.62,1.91
2.134,-0.26,0.96,1.45,1.76
2.144,-0.73,1.24,1.33,1.96
2.155,-0.46,1.80,0.78,2.02
2.164,-0.11,1.98,-0.25,2.00
2.175,0.12,1.59,-1.29,2.05
2.185,0.24,0.95,-1.65,1.92
2.195,-0.02,0.67,-0.89,1.12
2.205,-0.71,1.04,0.70,1.44
2.215,-1.20,1.22,1.16,2.07
2.225,-0.04,1.42,0.87,1.67
2.235,1.26,1.34,-0.24,1.85
2.245,1.72,1.22,-1.25,2.46
2.255,1.35,1.20,-1.48,2.34
2.265,0.80,0.99,-1.47,1.95
2.275,0.40,0.60,-1.55,1.71
2.285,0.62,0.44,-1.81,1.96
2.296,1.26,0.26,-2.26,2.61
2.306,1.57,0.20,-2.71,3.14
2.316,1.66,0.17,-2.73,3.20
2.326,1.67,-0.23,-2.31,2.86
2.336,1.41,-0.63,-1.60,2.22
2.346,0.60,-0.56,-0.81,1.15
2.356,0.12,-0.33,-0.75,0.83
2.366,0.51,-0.18,-1.47,1.56
2.376,0.58,-0.02,-2.01,2.10
2.386,0.15,-0.00,-2.01,2.01
2.396,-0.17,-0.27,-1.82,1.85
2.406,-0.53,-0.58,-1.52,1.72
2.416,-0.89,-0.68,-1.01,1.51
2.426,-0.81,-0.75,-0.54,1.23
2.436,-0.16,-0.56,-0.35,0.68
2.446,0.37,-0.27,-0.23,0.51
2.457,0.45,-0.21,-0.12,0.51
2.467,0.26,-0.19,0.04,0.32
2.477,0.10,-0.40,0.26,0.49
2.487,-0.13,-0.56,0.49,0.76
2.497,-0.30,-0.42,0.50,0.72
2.507,-0.07,-0.36,0.35,0.51
2.517,-0.08,-0.18,0.27,0.33
2.527,-0.29,-0.13,0.33,0.46
2.537,-0.67,-0.21,0.45,0.83
2.547,-1.01,-0.27,0.49,1.15
2.557,-1.37,-0.32,0.44,1.48
2.567,-1.68,-0.49,0.37,1.79
2.577,-1.54,-0.35,0.26,1.60
2.587,-1.13,0.03,0.04,1.14
2.597,-0.84,0.01,-0.28,0.89
2.608,-0.65,0.14,-0.33,0.75
2.618,-0.53,0.04,-0.30,0.61
2.628,-0.49,0.09,-0.30,0.59
2.638,-0.51,0.38,-0.18,0.66
2.648,-0.11,0.52,-0.31,0.62
2.658,0.46,0.86,-0.86,1.30
2.668,0.74,1.07,-1.40,1.91
2.678,0.73,1.17,-1.60,2.11
2.688,0.40,1.21,-1.43,1.91
2.698,0.12,1.06,-1.15,1.57
2.708,-0.01,0.96,-0.78,1.24
2.718,0.09,0.94,-0.23,0.97
2.728,0.50,0.89,0.36,1.08
2.738,1.00,0.93,0.82,1.59
2.748,1.09,0.99,1.00,1.78
2.759,0.87,0.86,1.02,1.59
2.769,0.55,0.58,0.96,1.25
2.779,0.26,0.30,1.05,1.12
2.789,-0.25,0.06,1.12,1.14
2.799,-0.93,0.13,0.59,1.11
2.809,-1.21,0.33,-1.59,2.03
2.819,-1.05,0.16,-3.35,3.51
2.829,-1.04,0.22,-2.71,2.92
2.839,-0.46,0.55,-1.21,1.41
2.849,0.05,0.41,0.18,0.45
2.859,0.31,-0.17,0.64,0.73
2.869,0.70,-0.72,0.28,1.04
2.879,0.90,-0.42,-0.07,1.00
2.889,0.56,0.29,-0.25,0.68
2.900,-0.08,0.77,-0.42,0.88
2.910,-0.52,0.71,-0.43,0.98
2.920,-0.67,0.73,-0.25,1.02
2.930,-0.80,0.92,-0.06,1.22
2.940,-1.15,1.04,0.07,1.55
2.950,-1.50,0.87,0.02,1.73
2.960,-1.11,0.54,-0.10,1.24
2.970,-1.08,0.93,-0.05,1.43
2.980,-1.21,0.98,-0.11,1.56
2.990,-0.41,0.40,-0.33,0.66
3.000,0.02,0.19,-0.08,0.21
3.010,0.41,0.23,0.23,0.52
3.020,0.67,0.31,0.24,0.78
3.030,0.61,0.31,-0.00,0.68
3.040,0.44,0.65,0.03,0.79
3.051,0.17,0.45,-0.29,0.56
3.061,0.04,0.39,-0.22,0.45
3.071,0.10,0.43,-0.12,0.46
3.081,0.05,0.38,-0.10,0.39
3.091,-0.06,0.34,-0.13,0.37
3.101,-0.13,0.34,-0.04,0.36
3.111,-0.20,0.30,0.27,0.45
3.121,-0.18,0.28,0.25,0.42
3.131,-0.10,0.29,-0.04,0.31
3.141,-0.06,0.29,-0.25,0.39
3.151,-0.04,0.32,-0.34,0.47
3.161,-0.04,0.36,-0.21,0.42
3.171,-0.08,0.40,0.00,0.41
3.181,-0.09,0.45,0.05,0.47
3.191,-0.08,0.46,-0.05,0.47
3.201,-0.08,0.45,-0.11,0.47
3.212,-0.05,0.42,-0.08,0.43
3.222,-0.05,0.40,-0.04,0.41
3.232,-0.03,0.37,-0.01,0.37
3.242,0.01,0.32,-0.02,0.32
3.252,0.04,0.29,-0.06,0.30
3.262,0.05,0.27,-0.08,0.28
3.272,0.04,0.26,-0.10,0.28
3.282,0.05,0.25,-0.10,0.28
3.292,0.01,0.29,-0.07,0.30
3.302,-0.07,0.31,-0.02,0.32
3.312,-0.15,0.33,-0.01,0.37
3.322,-0.17,0.34,-0.02,0.38
3.332,-0.20,0.30,-0.05,0.36
3.343,-0.21,0.27,-0.06,0.35
3.352,-0.18,0.23,-0.06,0.30
3.363,-0.14,0.20,-0.09,0.26
3.373,-0.13,0.22,0.01,0.25
3.383,-0.10,0.26,-0.02,0.28
3.393,-0.07,0.27,-0.04,0.28
3.403,-0.08,0.27,-0.03,0.28
3.413,-0.09,0.26,-0.10,0.29
3.423,-0.13,0.25,-0.10,0.30
3.433,-0.16,0.28,-0.06,0.33
3.443,-0.22,0.31,-0.02,0.38
3.453,-0.22,0.30,0.01,0.37
3.463,-0.18,0.28,-0.04,0.33
3.473,-0.11,0.23,-0.13,0.28
3.484,-0.06,0.17,-0.15,0.23
3.494,-0.05,0.14,-0.14,0.20
3.504,-0.07,0.14,-0.10,0.19
3.514,-0.10,0.18,-0.03,0.21
3.524,-0.13,0.23,0.00,0.26
3.534,-0.13,0.22,0.05,0.26
3.544,-0.12,0.23,0.04,0.26
3.554,-0.09,0.18,-0.02,0.21
3.564,-0.08,0.17,-0.01,0.18
3.574,-0.00,0.16,-0.00,0.16
3.584,0.05,0.14,-0.04,0.16
3.594,0.10,0.13,-0.07,0.17
3.604,0.13,0.13,-0.01,0.18
3.614,0.11,0.13,0.09,0.20
3.624,0.14,0.15,0.08,0.22
3.634,0.11,0.16,0.03,0.20
3.645,0.10,0.15,-0.01,0.18
3.655,0.05,0.17,-0.02,0.18
3.665,0.02,0.18,-0.02,0.18
3.675,-0.01,0.15,-0.01,0.15
3.685,-0.02,0.12,-0.04,0.13
3.695,-0.00,0.11,0.01,0.11
3.705,0.03,0.12,0.03,0.13
3.715,0.07,0.15,-0.00,0.16
3.725,0.03,0.16,0.01,0.16
3.735,-0.11,0.16,0.02,0.20
3.745,-0.25,0.14,0.01,0.28
3.755,-0.31,0.10,0.01,0.33
3.765,-0.33,0.05,-0.03,0.33
3.776,-0.27,0.02,-0.09,0.29
3.786,-0.20,0.03,-0.11,0.23
3.796,-0.12,0.06,-0.03,0.14
3.806,-0.07,0.10,0.07,0.14
3.816,-0.03,0.10,0.12,0.16
3.826,-0.01,0.09,0.05,0.11
3.836,-0.02,0.08,-0.07,0.11
3.846,-0.04,0.09,-0.11,0.15
3.856,-0.03,0.12,-0.03,0.12
3.866,-0.04,0.14,-0.00,0.14
3.876,-0.02,0.13,-0.14,0.19
3.886,-0.02,0.12,-0.05,0.13
3.896,-0.02,0.13,0.17,0.22
3.906,-0.01,0.13,0.34,0.36
3.916,0.00,0.13,0.16,0.21
3.926,0.00,0.09,-0.05,0.11
3.936,0.00,0.07,-0.19,0.20
3.947,0.02,0.08,-0.13,0.15
3.957,0.03,0.11,0.02,0.11
3.967,0.05,0.16,0.07,0.18
3.977,0.09,0.20,0.03,0.22
3.987,0.12,0.22,-0.05,0.26
3.997,0.11,0.23,-0.07,0.26
4.007,0.09,0.19,-0.05,0.22
4.017,0.03,0.13,0.01,0.13
4.027,0.02,0.09,0.04,0.10
4.037,0.00,0.04,0.00,0.04
4.047,0.02,0.02,-0.04,0.05
4.057,0.04,-0.01,-0.07,0.08
4.067,0.01,0.01,-0.03,0.04
4.077,-0.01,0.04,0.03,0.05
4.088,-0.03,0.09,0.07,0.12
4.098,-0.06,0.12,0.07,0.15
4.108,-0.06,0.13,0.04,0.15
4.118,-0.07,0.09,0.01,0.11
4.128,-0.09,0.05,-0.03,0.11
4.138,-0.09,0.02,-0.04,0.10
4.148,-0.07,0.04,-0.02,0.08
4.158,-0.06,0.08,0.07,0.13
4.168,-0.03,0.13,0.07,0.15
4.178,0.03,0.13,-0.05,0.14
4.188,0.04,0.11,0.02,0.12
4.198,0.00,0.11,-0.00,0.11
4.208,-0.06,0.12,-0.02,0.14
4.218,-0.07,0.12,0.02,0.15
4.229,-0.06,0.11,-0.02,0.13
4.239,-0.03,0.11,-0.06,0.13
4.249,0.03,0.11,-0.07,0.14
4.259,0.05,0.11,-0.08,0.15
4.269,0.03,0.11,-0.04,0.12
4.279,0.01,0.11,-0.03,0.11
4.289,-0.02,0.11,-0.06,0.13
4.299,-0.07,0.10,-0.03,0.12
4.309,-0.08,0.09,-0.01,0.13
4.319,-0.05,0.09,0.01,0.10
4.329,0.03,0.08,0.03,0.09
4.339,0.09,0.10,0.04,0.14
4.349,0.14,0.07,0.04,0.16
4.359,0.13,0.02,0.01,0.13
4.369,0.12,-0.04,-0.03,0.13
4.379,0.07,-0.09,-0.00,0.12
4.390,-0.01,-0.07,0.10,0.12
4.400,-0.13,-0.03,0.14,0.19
4.410,-0.21,0.04,0.11,0.24
4.420,-0.29,0.13,0.03,0.32
4.430,-0.36,0.16,-0.02,0.40
4.440,-0.36,0.16,-0.03,0.40
4.450,-0.27,0.16,-0.07,0.32
4.460,-0.13,0.09,-0.07,0.17
4.470,-0.02,-0.00,-0.05,0.05
4.480,0.05,-0.06,-0.01,0.08
4.490,0.07,-0.06,0.05,0.11
4.500,0.07,-0.03,0.07,0.10
4.510,0.05,0.03,0.04,0.08
4.521,0.01,0.14,0.03,0.14
4.531,-0.04,0.20,0.09,0.23
4.541,-0.06,0.19,0.06,0.21
4.551,-0.07,0.15,0.00,0.16
4.561,-0.06,0.10,-0.04,0.12
4.571,-0.03,0.06,-0.09,0.12
4.581,-0.01,0.05,-0.05,0.07
4.591,0.01,0.06,0.00,0.06
4.601,0.06,0.07,-0.02,0.09
4.611,0.09,0.05,-0.11,0.15
4.621,0.09,0.01,-0.06,0.11
4.631,0.05,0.01,0.14,0.15
4.641,-0.01,0.01,0.31,0.31
4.651,-0.00,0.03,0.22,0.23
4.661,-0.03,0.10,0.07,0.12
4.672,-0.05,0.12,-0.06,0.14
4.682,-0.03,0.12,-0.12,0.17
4.692,-0.05,0.11,-0.07,0.14
4.702,-0.09,0.12,-0.01,0.15
4.712,-0.13,0.14,0.06,0.20
4.722,-0.20,0.14,0.03,0.24
4.732,-0.19,0.10,-0.02,0.22
4.742,-0.11,0.06,-0.08,0.15
4.752,0.01,0.05,-0.11,0.12
4.762,0.14,0.08,-0.09,0.18
4.772,0.21,0.07,-0.04,0.22
4.782,0.23,0.05,0.01,0.24
4.792,0.20,0.01,0.05,0.21
4.802,0.20,-0.04,0.08,0.22
4.812,0.18,-0.11,0.08,0.22
4.823,0.17,-0.12,0.08,0.22
4.833,0.17,-0.11,0.03,0.21
4.843,0.14,-0.09,0.01,0.17
4.853,0.12,-0.04,-0.01,0.13
4.863,0.05,-0.01,0.02,0.06
4.873,-0.05,0.02,0.05,0.08
4.883,-0.13,0.03,0.05,0.14
4.893,-0.16,0.04,0.12,0.21
4.903,-0.15,0.02,0.11,0.18
4.913,-0.12,-0.00,-0.08,0.14
4.923,-0.10,-0.04,-0.01,0.10
4.933,-0.08,-0.05,-0.01,0.10
4.943,-0.10,-0.04,-0.06,0.12
4.954,-0.11,0.02,-0.03,0.12
4.964,-0.08,0.08,-0.03,0.12
4.974,-0.06,0.14,-0.02,0.16
4.984,-0.07,0.19,-0.03,0.21
4.994,-0.06,0.22,-0.03,0.23
5.004,-0.06,0.18,-0.01,0.19
5.014,-0.07,0.10,0.00,0.12
5.024,-0.07,-0.00,-0.01,0.08
5.034,-0.06,-0.10,0.01,0.12
5.044,-0.02,-0.13,0.01,0.13
5.054,-0.03,-0.11,-0.01,0.11
5.064,-0.02,-0.05,0.03,0.06
5.074,0.02,0.00,0.06,0.06
5.084,0.05,0.04,0.04,0.08
5.094,0.06,0.06,0.04,0.10
5.104,0.07,0.09,0.05,0.12
5.115,0.03,0.09,0.04,0.10
5.125,0.03,0.06,0.03,0.08
5.135,-0.00,0.01,0.03,0.03
5.145,-0.03,-0.02,-0.02,0.04
5.155,-0.01,-0.06,-0.04,0.07
5.165,0.00,-0.05,0.00,0.05
5.175,0.05,-0.02,0.05,0.07
5.185,0.06,0.04,0.04,0.08
5.195,0.04,0.05,0.03,0.07
5.205,0.04,0.05,0.03,0.07
5.215,-0.02,0.03,-0.01,0.03
5.225,-0.05,0.02,-0.05,0.07
5.235,-0.07,0.03,0.00,0.08
5.245,-0.05,0.04,0.05,0.09
5.256,-0.01,0.08,0.03,0.08
5.266,0.05,0.08,-0.01,0.10
5.276,0.08,0.08,-0.07,0.14
5.286,0.10,0.05,-0.08,0.14
5.296,0.10,0.03,0.01,0.10
5.306,0.07,0.03,0.05,0.09
5.316,0.08,0.05,-0.02,0.10
5.326,0.03,0.06,-0.08,0.11
5.336,-0.02,0.06,-0.02,0.07
5.346,-0.07,0.06,0.17,0.20
5.356,-0.12,0.03,0.17,0.21
5.366,-0.13,0.01,0.07,0.15
5.376,-0.14,0.02,-0.04,0.15
5.386,-0.18,0.04,-0.08,0.20
5.396,-0.17,0.08,-0.03,0.19
5.406,-0.20,0.11,0.02,0.23
5.417,-0.14,0.13,0.04,0.20
5.427,-0.05,0.12,-0.01,0.13
5.437,0.03,0.12,-0.05,0.13
5.447,0.06,0.08,-0.03,0.11
5.457,0.06,0.01,-0.00,0.06
5.467,-0.05,-0.08,-0.00,0.09
5.477,-0.16,-0.14,-0.02,0.21
5.487,-0.26,-0.17,-0.03,0.31
5.497,-0.28,-0.10,-0.07,0.30
5.507,-0.22,-0.01,-0.00,0.22
5.517,-0.12,0.09,0.09,0.17
5.527,0.10,0.18,0.10,0.23
5.537,0.25,0.25,0.09,0.37
5.547,0.32,0.28,0.06,0.43
5.558,0.33,0.27,0.04,0.43
5.568,0.35,0.19,0.06,0.41
5.578,0.39,0.10,0.12,0.42
5.588,0.33,-0.01,0.06,0.33
5.598,0.21,-0.05,-0.04,0.22
5.608,0.09,-0.09,-0.08,0.15
5.618,0.01,-0.07,-0.28,0.29
5.628,-0.04,-0.03,-0.18,0.19
5.638,-0.03,0.01,0.13,0.13
5.648,0.01,0.07,0.20,0.21
5.658,0.04,0.12,0.20,0.24
5.668,0.06,0.15,0.11,0.19
5.678,0.04,0.14,-0.04,0.15
5.688,-0.07,0.12,-0.09,0.16
5.698,-0.23,0.09,-0.04,0.24
5.709,-0.36,0.06,0.08,0.37
5.719,-0.41,-0.00,0.07,0.42
5.729,-0.34,-0.03,-0.03,0.34
5.739,-0.23,-0.05,-0.08,0.25
5.749,-0.14,-0.04,-0.05,0.15
5.759,-0.12,-0.05,-0.04,0.13
5.769,-0.06,-0.10,0.07,0.14
5.779,-0.07,-0.10,0.15,0.19
5.789,-0.07,-0.10,0.18,0.22
5.799,-0.06,-0.09,0.11,0.15
5.809,-0.05,-0.06,0.01,0.08
5.819,-0.04,-0.05,-0.10,0.12
5.829,-0.03,-0.07,-0.15,0.17
5.839,0.02,-0.07,-0.05,0.09
5.850,0.02,-0.02,0.06,0.07
5.860,0.07,0.03,0.13,0.15
5.870,0.05,0.05,0.16,0.18
5.880,0.02,0.07,0.05,0.08
5.890,-0.03,0.07,-0.05,0.09
5.900,-0.10,0.05,-0.12,0.17
5.910,-0.17,0.06,-0.11,0.21
5.920,-0.15,0.06,-0.00,0.17
5.930,-0.12,0.05,0.14,0.19
5.940,-0.07,0.05,0.22,0.24
5.950,-0.02,0.04,0.18,0.19
5.960,0.02,0.02,0.01,0.03
5.970,0.03,-0.01,-0.17,0.17
5.980,-0.02,-0.04,-0.21,0.22
5.990,-0.04,0.01,-0.08,0.09
6.001,-0.04,0.07,0.10,0.12
6.011,-0.09,0.13,0.16,0.23
6.021,-0.06,0.11,0.11,0.16
6.031,0.03,0.10,0.08,0.13
6.041,0.05,0.08,0.16,0.19
6.051,0.01,0.06,0.15,0.16
6.061,-0.12,0.05,0.04,0.13
6.071,-0.23,0.03,-0.03,0.24
6.081,-0.22,0.06,-0.06,0.23
6.091,-0.17,0.05,-0.10,0.20
6.101,-0.06,0.09,-0.04,0.12
6.111,0.07,0.17,0.07,0.19
6.121,0.19,0.20,0.05,0.28
6.131,0.26,0.16,-0.01,0.31
6.141,0.19,0.16,-0.03,0.25
6.152,0.03,0.14,-0.03,0.15
6.162,-0.15,0.22,-0.04,0.28
6.172,-0.23,0.46,0.06,0.52
6.182,-0.36,0.49,0.19,0.64
6.192,-0.42,0.19,0.23,0.51
6.202,-0.23,-0.31,0.16,0.41
6.212,0.09,-0.60,0.10,0.61
6.222,0.42,-0.70,0.04,0.82
6.232,0.78,-0.75,-0.20,1.10
6.242,0.96,-0.71,-0.37,1.25
6.252,1.03,-0.62,-0.31,1.24
6.262,0.98,-0.44,-0.19,1.09
6.272,0.81,-0.31,-0.06,0.87
6.282,0.55,-0.17,0.01,0.58
6.293,0.16,-0.03,0.11,0.20
6.303,-0.25,0.15,0.29,0.41
6.313,-0.51,0.28,0.20,0.61
6.323,-0.60,0.30,0.28,0.72
6.333,-0.50,0.23,0.38,0.67
6.343,-0.31,0.10,0.14,0.35
6.353,-0.10,-0.04,-0.10,0.15
6.363,-0.01,-0.09,-0.15,0.18
6.373,-0.02,-0.06,-0.16,0.17
6.383,-0.15,-0.01,-0.13,0.20
6.393,-0.27,0.04,-0.05,0.27
6.403,-0.34,0.06,-0.03,0.34
6.413,-0.31,0.08,0.00,0.32
6.423,-0.24,0.07,-0.05,0.26
6.433,-0.18,0.10,-0.10,0.23
6.444,-0.18,0.14,-0.07,0.24
6.454,-0.22,0.16,-0.07,0.28
6.464,-0.28,0.20,0.02,0.35
6.474,-0.28,0.21,0.13,0.37
6.484,-0.24,0.17,0.16,0.33
6.494,-0.21,0.13,0.14,0.28
6.504,-0.14,0.05,0.10,0.18
6.514,-0.03,0.01,-0.02,0.04
6.524,0.07,-0.01,-0.04,0.08
6.534,0.21,0.00,-0.01,0.21
6.544,0.35,0.02,-0.06,0.36
6.554,0.43,-0.01,-0.10,0.44
6.564,0.47,-0.11,-0.11,0.49
6.574,0.43,-0.12,-0.06,0.45
6.584,0.35,-0.08,-0.02,0.36
6.594,0.27,-0.04,0.06,0.28
6.604,0.25,-0.01,0.11,0.27
6.615,0.23,0.00,0.09,0.25
6.625,0.22,-0.03,0.09,0.23
6.635,0.15,-0.06,0.12,0.20
6.645,0.09,-0.09,0.09,0.16
6.655,0.03,-0.17,0.01,0.17
6.665,-0.06,-0.17,-0.09,0.21
6.675,-0.11,-0.19,-0.11,0.25
6.685,-0.20,-0.17,-0.04,0.27
6.695,-0.21,-0.15,-0.02,0.26
6.705,-0.19,-0.14,-0.02,0.23
6.715,-0.15,-0.12,-0.06,0.20
6.725,-0.09,-0.11,-0.08,0.17
6.736,-0.04,-0.10,0.11,0.15
6.746,0.02,-0.08,0.23,0.25
6.756,0.04,-0.09,0.11,0.15
6.766,0.01,-0.09,0.03,0.09
6.776,-0.01,-0.06,-0.05,0.08
6.786,-0.07,-0.02,-0.04,0.09
6.796,-0.13,0.05,0.05,0.15
6.806,-0.15,0.10,0.12,0.21
6.816,-0.16,0.11,0.11,0.22
6.826,-0.19,0.09,0.07,0.22
6.836,-0.19,0.06,0.05,0.21
6.846,-0.19,0.03,0.02,0.20
6.856,-0.19,0.01,-0.01,0.19
6.866,-0.18,0.02,-0.03,0.18
6.876,-0.14,0.02,-0.03,0.14
6.886,-0.08,-0.00,-0.01,0.08
6.897,-0.03,-0.03,0.02,0.04
6.907,0.06,-0.07,0.01,0.09
6.917,0.11,-0.07,0.04,0.14
6.927,0.15,-0.07,0.05,0.18
6.937,0.15,-0.05,0.03,0.17
6.947,0.16,-0.05,-0.01,0.17
6.957,0.15,-0.03,-0.01,0.15
6.967,0.11,-0.03,-0.02,0.12
6.977,0.10,-0.06,-0.02,0.11
6.987,0.10,-0.04,0.06,0.12
6.997,0.10,-0.02,0.18,0.21
7.007,0.16,-0.02,-0.08,0.18
7.017,0.16,-0.02,0.02,0.16
7.028,0.11,0.03,0.20,0.23
7.038,0.07,0.03,-0.03,0.08
7.048,0.05,0.01,-0.08,0.09
7.058,0.02,0.03,-0.04,0.05
7.068,0.01,0.04,-0.05,0.07
7.078,0.02,0.06,-0.04,0.08
7.088,0.04,0.07,-0.04,0.09
7.098,0.00,0.04,-0.03,0.05
7.108,-0.03,-0.02,-0.00,0.04
7.118,0.00,-0.02,-0.02,0.03
7.128,0.04,-0.02,-0.01,0.04
7.138,0.04,-0.03,0.06,0.08
7.148,0.02,-0.02,0.04,0.05
7.158,0.03,-0.01,0.00,0.03
7.169,-0.01,-0.01,0.00,0.01
7.179,-0.04,-0.02,-0.01,0.05
7.189,-0.06,-0.03,-0.00,0.07
7.199,-0.05,-0.05,0.04,0.08
7.209,0.01,-0.04,0.09,0.10
7.219,0.04,-0.04,0.11,0.12
7.229,0.04,0.00,0.11,0.12
7.239,-0.01,0.02,0.07,0.08
7.249,-0.09,0.05,-0.01,0.10
7.259,-0.15,0.07,-0.04,0.17
7.269,-0.20,0.10,0.01,0.22
7.279,-0.18,0.08,0.06,0.20
7.289,-0.10,0.06,0.04,0.13
7.299,-0.02,0.05,0.01,0.05
7.309,0.02,0.04,0.04,0.06
7.320,0.05,0.01,0.07,0.09
7.330,0.10,0.01,0.05,0.11
7.340,0.12,-0.00,-0.03,0.12
7.350,0.11,-0.02,-0.08,0.14
7.360,0.12,-0.01,-0.09,0.15
7.370,0.12,0.01,-0.02,0.12
7.380,0.09,0.02,0.03,0.09
7.390,0.06,-0.00,0.02,0.06
7.400,0.01,-0.02,0.01,0.02
7.410,0.01,-0.06,0.04,0.07
7.420,0.04,-0.09,0.05,0.11
7.430,0.08,-0.09,0.07,0.14
7.440,0.10,-0.09,0.05,0.14
7.450,0.08,-0.06,0.03,0.11
7.460,-0.01,-0.01,-0.03,0.03
7.471,-0.08,0.04,0.01,0.09
7.481,-0.12,0.10,0.08,0.18
7.491,-0.11,0.09,0.13,0.19
7.501,-0.05,0.07,0.07,0.12
7.511,-0.00,0.01,-0.00,0.02
7.521,0.01,-0.02,-0.06,0.06
7.531,0.00,-0.01,-0.07,0.08
7.541,-0.03,-0.01,-0.06,0.06
7.551,-0.06,-0.00,-0.04,0.07
7.561,-0.08,0.01,0.02,0.08
7.571,-0.07,0.00,0.06,0.09
7.581,-0.03,0.01,0.05,0.06
7.591,-0.00,0.02,0.02,0.03
7.601,-0.01,0.02,0.00,0.03
7.611,-0.00,0.01,0.02,0.02
7.622,-0.01,0.01,0.01,0.01
7.632,-0.01,-0.02,0.02,0.03
7.642,0.04,-0.04,0.01,0.06
7.652,0.06,-0.05,-0.01,0.08
7.662,0.09,-0.02,0.01,0.09
7.672,0.06,0.01,0.07,0.10
7.682,0.04,0.05,0.09,0.11
7.692,0.01,0.02,-0.16,0.17
7.702,0.02,-0.01,0.10,0.10
7.712,0.04,-0.01,0.25,0.26
7.722,0.06,-0.04,-0.08,0.10
7.732,0.02,-0.03,-0.13,0.13
7.742,0.01,-0.00,-0.03,0.03
7.752,0.00,0.04,0.01,0.04
7.762,-0.01,0.05,-0.01,0.06
7.773,-0.02,0.05,0.03,0.06
7.783,-0.04,0.04,0.05,0.08
7.793,-0.02,0.01,0.02,0.03
7.803,-0.03,0.00,-0.08,0.09
7.813,-0.03,-0.01,-0.04,0.05
7.823,-0.04,-0.05,0.05,0.08
7.833,-0.03,-0.04,0.04,0.07
7.843,-0.02,-0.03,0.06,0.07
7.853,-0.01,-0.00,0.04,0.04
7.863,-0.04,0.00,0.02,0.04
7.873,-0.04,0.00,0.00,0.04
7.883,-0.03,-0.01,0.00,0.03
7.893,0.00,-0.01,0.04,0.04
7.904,-0.01,-0.01,0.04,0.04
7.913,0.01,0.01,0.03,0.03
7.924,0.00,0.01,0.02,0.02
7.934,0.00,-0.00,-0.00,0.01
7.944,-0.00,0.00,0.04,0.04
7.954,0.01,0.00,0.06,0.06
7.964,0.02,0.02,0.04,0.05
7.974,0.01,0.00,-0.01,0.02
7.984,-0.01,0.02,-0.01,0.02
7.994,-0.00,0.02,0.05,0.06
8.004,-0.00,-0.01,0.07,0.07
8.014,0.06,-0.01,0.06,0.09
8.024,0.08,-0.01,-0.00,0.08
8.034,0.06,-0.01,-0.05,0.08
8.044,0.03,-0.02,0.01,0.04
8.054,-0.00,0.01,0.02,0.02
8.065,-0.03,0.01,0.05,0.06
8.075,-0.06,-0.01,0.01,0.06
8.085,-0.06,-0.03,-0.04,0.07
8.095,0.03,-0.02,0.09,0.10
8.105,0.06,-0.01,0.09,0.11
8.115,0.04,-0.04,-0.02,0.06
8.125,-0.02,-0.03,0.05,0.05
8.135,-0.06,0.00,0.01,0.06
8.145,-0.08,0.05,0.04,0.10
8.155,-0.06,0.08,0.13,0.16
8.165,-0.01,0.09,0.15,0.17
8.175,-0.00,0.07,0.02,0.07
8.185,-0.00,0.03,-0.06,0.07
8.195,0.00,-0.00,-0.09,0.09
8.205,-0.00,-0.02,-0.06,0.06
8.215,0.01,-0.03,-0.04,0.05
8.226,0.02,-0.04,0.00,0.05
8.236,0.03,-0.00,0.04,0.05
8.246,0.02,-0.01,0.04,0.05
8.256,0.02,-0.01,0.03,0.03
8.266,-0.02,-0.03,-0.00,0.03
8.276,-0.00,-0.03,-0.00,0.03
8.286,-0.00,-0.05,0.02,0.05
8.296,-0.01,-0.05,0.04,0.06
8.306,0.02,-0.03,0.02,0.04
8.316,0.05,-0.03,0.01,0.06
8.326,0.03,-0.01,0.00,0.03
8.336,0.01,0.01,-0.01,0.02
8.346,-0.00,0.03,0.03,0.04
8.357,-0.04,0.06,0.16,0.17
8.367,-0.01,0.05,-0.07,0.09
8.377,-0.01,0.01,-0.06,0.06
8.387,-0.01,0.02,0.29,0.29
8.397,0.00,-0.01,0.01,0.01
8.407,0.00,-0.02,-0.19,0.20
8.417,0.02,0.02,0.00,0.03
8.427,0.03,0.04,0.03,0.06
8.437,-0.01,0.05,-0.01,0.06
8.447,-0.03,0.05,0.01,0.06
8.457,-0.06,0.03,0.03,0.07
8.467,-0.04,0.03,0.01,0.05
8.477,-0.02,0.00,-0.07,0.07
8.487,-0.00,-0.05,-0.10,0.12
8.498,-0.00,-0.06,0.05,0.07
8.508,0.01,-0.04,0.11,0.12
8.518,0.02,-0.03,0.11,0.12
8.528,0.03,-0.02,0.09,0.10
8.538,-0.00,0.01,0.05,0.05
8.548,-0.02,0.00,0.01,0.02
8.558,-0.01,-0.02,-0.02,0.03
8.568,0.04,-0.02,-0.02,0.05
8.578,0.03,-0.02,0.02,0.04
8.588,0.04,-0.01,0.03,0.05
8.598,0.02,0.03,-0.01,0.03
8.608,-0.01,0.01,-0.02,0.03
8.618,-0.01,0.01,-0.01,0.02
8.628,-0.00,0.02,0.01,0.02
8.638,0.01,0.02,0.04,0.05
8.648,0.02,0.00,0.04,0.04
8.659,0.01,0.00,0.04,0.04
8.669,-0.02,0.01,0.01,0.03
8.679,-0.00,-0.00,0.04,0.04
8.689,0.03,0.00,0.06,0.07
8.699,0.01,0.00,0.06,0.06
8.709,-0.01,-0.02,0.00,0.02
8.719,-0.02,-0.02,-0.02,0.03
8.729,0.01,0.00,-0.02,0.02
8.739,0.02,0.02,0.05,0.06
8.749,-0.01,0.03,0.05,0.06
8.759,-0.03,0.01,-0.00,0.03
8.769,-0.07,-0.01,-0.15,0.17
8.779,-0.04,-0.02,-0.08,0.09
8.789,0.02,0.01,0.19,0.19
8.799,0.02,-0.00,0.17,0.17
8.810,0.02,-0.06,-0.00,0.06
8.820,-0.01,-0.05,-0.02,0.05
8.830,-0.03,-0.01,-0.14,0.14
8.840,-0.04,0.06,0.01,0.07
8.850,-0.02,0.11,0.20,0.23
8.860,0.02,0.08,0.23,0.24
8.870,0.03,0.07,0.09,0.12
8.880,0.02,0.03,-0.03,0.05
8.890,0.02,-0.00,-0.11,0.11
8.900,0.03,-0.02,-0.11,0.12
8.910,0.03,-0.04,-0.09,0.10
8.920,0.03,-0.04,0.00,0.05
8.930,0.01,-0.04,0.07,0.08
8.940,0.00,-0.03,0.07,0.08
8.951,-0.02,-0.03,0.03,0.04
8.961,0.00,-0.01,0.01,0.02
8.971,0.02,-0.03,0.02,0.04
8.981,-0.02,-0.02,0.02,0.04
8.991,-0.02,-0.04,0.02,0.05
9.001,0.00,-0.03,0.02,0.03
9.011,0.00,-0.00,0.00,0.00
9.021,-0.01,0.01,-0.02,0.02
9.031,-0.00,0.02,0.01,0.02
9.041,-0.01,0.02,0.03,0.03
9.051,-0.02,0.05,0.14,0.14
9.061,0.00,0.06,-0.02,0.07
9.071,-0.01,0.04,-0.06,0.08
9.081,-0.00,0.01,0.25,0.25
9.092,-0.01,-0.00,-0.07,0.07
9.102,-0.01,-0.01,-0.18,0.18
9.112,0.00,0.01,0.05,0.06
9.122,0.01,0.04,0.03,0.05
9.132,0.00,0.04,0.03,0.05
9.142,-0.01,0.03,0.03,0.05
9.152,-0.01,0.02,0.02,0.03
9.162,-0.01,0.01,0.01,0.02
9.172,-0.02,-0.00,-0.04,0.05
9.182,0.00,-0.04,-0.10,0.11
9.192,0.00,-0.05,-0.01,0.06
9.202,0.01,-0.02,0.08,0.08
9.212,0.01,-0.01,0.08,0.08
9.222,0.02,0.00,0.08,0.09
9.232,0.01,0.02,0.07,0.07
9.242,-0.00,0.01,-0.00,0.01
9.253,0.02,0.01,-0.04,0.04
9.263,0.01,-0.02,-0.01,0.02
9.273,0.02,-0.03,0.03,0.04
9.283,0.03,0.01,0.04,0.05
9.293,0.01,0.02,0.01,0.02
9.303,-0.01,0.02,-0.03,0.04
9.313,-0.02,0.02,-0.02,0.03
9.323,-0.01,0.03,0.02,0.04
9.333,0.00,0.03,0.05,0.06
9.343,0.01,0.00,0.02,0.02
9.353,-0.01,-0.00,-0.03,0.03
9.363,-0.03,0.01,-0.00,0.03
9.373,-0.01,0.02,0.04,0.05
9.384,0.00,-0.01,0.06,0.07
9.394,0.02,-0.02,0.05,0.05
9.404,-0.03,-0.02,-0.01,0.04
9.414,-0.04,0.00,-0.01,0.04
9.424,-0.04,-0.00,0.06,0.08
9.434,-0.01,-0.00,0.07,0.07
9.444,-0.01,-0.02,0.04,0.04
9.454,0.00,-0.02,0.02,0.02
9.464,0.01,-0.00,-0.05,0.05
9.474,0.02,0.01,-0.01,0.02
9.484,0.01,0.02,0.04,0.05
9.494,-0.02,0.02,0.01,0.03
9.504,-0.04,-0.00,-0.13,0.14
9.514,-0.02,-0.00,-0.02,0.03
9.524,0.02,0.01,0.20,0.20
9.534,0.01,0.00,0.12,0.12
9.545,0.00,-0.03,-0.05,0.06
9.555,-0.03,-0.04,-0.07,0.09
9.565,-0.05,0.02,-0.11,0.12
9.575,-0.04,0.07,0.03,0.08
9.585,-0.01,0.08,0.22,0.23
9.595,0.02,0.07,0.23,0.25
9.605,0.05,0.04,0.07,0.10
9.615,0.03,-0.00,-0.06,0.06
9.625,0.01,-0.01,-0.10,0.10
9.635,-0.01,-0.05,-0.10,0.11
9.645,0.02,-0.07,-0.06,0.09
9.655,0.04,-0.05,0.03,0.07
9.665,0.02,-0.04,0.06,0.08
9.675,-0.00,-0.02,0.03,0.04
9.685,-0.02,0.01,0.02,0.03
9.696,-0.02,-0.00,-0.01,0.02
9.706,-0.02,-0.03,-0.01,0.03
9.716,-0.01,-0.03,0.01,0.04
9.726,-0.01,-0.02,0.03,0.04
9.736,-0.01,-0.01,0.03,0.04
9.746,-0.00,-0.00,0.01,0.01
9.756,-0.00,0.03,-0.01,0.03
9.766,-0.00,0.03,0.01,0.04
9.776,-0.02,0.03,0.03,0.05
9.786,-0.00,0.05,0.11,0.12
9.796,0.03,0.07,0.03,0.08
9.806,-0.02,0.04,-0.12,0.13
9.816,-0.01,0.01,0.17,0.17
9.827,-0.01,-0.02,-0.08,0.08
9.837,-0.00,-0.04,-0.19,0.19
9.847,0.00,0.00,0.09,0.09
9.857,0.02,0.04,0.08,0.09
9.867,0.02,0.05,0.04,0.06
9.877,-0.01,0.04,0.04,0.06
9.887,-0.01,0.02,0.02,0.03
9.897,-0.02,0.01,0.02,0.04
9.907,-0.01,-0.02,-0.01,0.02
9.917,-0.01,-0.04,-0.09,0.10
9.927,-0.01,-0.04,-0.05,0.07
9.937,-0.02,-0.03,0.05,0.06
9.947,-0.02,0.00,0.09,0.09
9.957,0.01,0.01,0.08,0.08
9.967,0.03,0.03,0.07,0.08
9.977,0.00,0.03,0.05,0.06
9.987,-0.00,0.00,-0.01,0.02
9.998,0.00,-0.01,-0.03,0.03
10.008,0.03,-0.02,-0.00,0.03
10.018,0.02,-0.01,0.03,0.04
10.028,0.02,0.01,0.03,0.03
10.038,-0.00,0.03,-0.01,0.03
10.048,-0.02,0.03,-0.00,0.03
10.058,-0.01,0.04,0.01,0.04
10.068,0.01,0.03,0.04,0.05
10.078,0.01,-0.00,0.04,0.04
10.088,-0.00,-0.02,0.01,0.02
10.098,-0.01,-0.00,0.01,0.01
10.108,-0.02,-0.00,0.01,0.03
10.118,-0.00,-0.01,0.02,0.03
10.129,-0.01,-0.02,0.02,0.03
10.139,0.00,-0.01,0.03,0.03
10.149,-0.01,-0.01,0.01,0.02
10.159,0.00,-0.01,0.03,0.03
10.169,0.01,-0.00,0.05,0.05
10.179,0.01,-0.00,0.06,0.07
10.189,0.00,-0.00,0.02,0.02
10.199,-0.01,-0.01,-0.02,0.03
10.209,-0.02,0.01,-0.05,0.06
10.219,-0.02,0.01,0.04,0.04
10.229,-0.01,0.01,0.10,0.10
10.239,0.01,0.01,0.04,0.04
10.249,0.01,-0.01,-0.00,0.01
10.259,0.02,0.02,-0.06,0.06
10.269,0.01,0.04,-0.01,0.04
10.280,0.01,0.04,0.07,0.09
10.290,-0.03,0.01,0.06,0.07
10.300,-0.07,0.00,-0.13,0.15
10.310,-0.03,-0.01,-0.04,0.05
10.320,0.03,0.01,0.16,0.17
10.330,0.04,-0.02,0.19,0.19
10.340,0.02,-0.05,-0.00,0.05
10.350,0.00,-0.04,-0.06,0.07
10.360,-0.04,-0.01,-0.12,0.13
10.370,-0.05,0.05,-0.01,0.07
10.380,-0.02,0.09,0.20,0.22
10.390,0.02,0.09,0.24,0.26
10.400,0.02,0.04,0.08,0.10
10.411,0.00,0.01,-0.04,0.04
10.420,0.01,0.00,-0.10,0.10
10.430,0.01,-0.03,-0.12,0.13
10.441,0.03,-0.05,-0.08,0.10
10.451,0.02,-0.04,-0.01,0.05
10.461,0.02,-0.03,0.07,0.08
10.471,-0.01,-0.02,0.06,0.06
10.481,-0.03,-0.00,0.04,0.05
10.491,-0.04,-0.01,-0.01,0.04
10.501,-0.02,-0.01,-0.00,0.03
10.511,-0.01,-0.02,0.04,0.05
10.521,-0.01,-0.02,0.03,0.04
10.531,-0.01,-0.02,0.04,0.05
10.541,-0.00,-0.00,0.01,0.01
10.551,-0.01,0.01,-0.01,0.02
10.561,0.01,0.02,-0.01,0.02
10.572,0.01,0.03,0.02,0.04
10.582,0.02,0.04,0.06,0.07
10.592,-0.00,0.06,0.12,0.14
10.602,-0.01,0.05,-0.13,0.14
10.612,-0.03,0.02,0.10,0.11
10.622,-0.01,-0.00,0.11,0.11
10.632,-0.00,-0.05,-0.20,0.20
10.642,-0.00,-0.01,-0.02,0.03
10.652,0.01,0.04,0.08,0.09
10.662,0.03,0.05,0.04,0.07
10.672,0.02,0.05,0.03,0.06
10.682,-0.04,0.03,0.01,0.05
10.692,-0.04,0.02,0.00,0.04
10.702,-0.04,0.01,0.01,0.04
10.712,-0.02,-0.02,-0.07,0.07
10.723,-0.02,-0.04,-0.06,0.08
10.733,0.00,-0.04,0.01,0.04
10.743,0.00,-0.01,0.04,0.04
10.753,0.01,0.01,0.09,0.09
10.763,0.03,0.01,0.07,0.08
10.773,0.01,0.03,0.06,0.07
10.783,-0.01,0.01,0.02,0.03
10.793,0.00,0.01,-0.02,0.02
10.803,0.02,-0.00,-0.01,0.02
10.813,0.03,-0.03,0.00,0.05
10.823,0.02,-0.01,0.00,0.02
10.833,0.02,0.01,0.01,0.02
10.843,-0.00,0.01,-0.01,0.01
10.853,-0.02,0.03,-0.01,0.04
10.864,-0.01,0.04,0.03,0.05
10.874,-0.02,0.03,0.03,0.04
10.884,-0.01,-0.00,0.03,0.03
10.894,-0.00,-0.01,0.03,0.03
10.904,-0.02,-0.00,0.03,0.03
10.914,-0.02,0.01,0.02,0.03
10.924,0.00,0.01,0.03,0.03
10.934,0.00,-0.02,0.02,0.03
10.944,-0.00,-0.01,0.00,0.01
10.954,-0.01,-0.01,0.01,0.01
10.964,0.00,-0.01,0.04,0.04
10.974,0.01,0.00,0.03,0.03
10.984,0.01,-0.02,0.04,0.04
10.994,0.01,-0.00,0.03,0.04
11.004,0.01,-0.00,0.02,0.02
11.014,-0.02,0.01,0.02,0.03
11.025,-0.01,0.00,0.00,0.01
11.035,-0.01,-0.00,0.01,0.01
11.045,-0.00,0.00,0.02,0.02
11.055,-0.00,0.01,-0.01,0.01
11.065,-0.00,0.01,-0.00,0.01
11.075,-0.01,0.02,0.02,0.03
11.085,0.01,-0.00,0.01,0.01
11.095,-0.02,0.00,0.02,0.03
11.105,-0.02,0.01,0.04,0.04
11.115,-0.00,0.01,0.01,0.01
11.125,0.00,0.01,0.01,0.01
11.135,-0.01,0.01,-0.01,0.02
11.145,-0.01,-0.01,0.01,0.01
11.155,0.00,-0.01,0.00,0.01
11.165,0.02,0.02,0.02,0.03
11.176,0.01,0.01,0.01,0.01
11.186,0.01,-0.01,0.00,0.02
11.196,-0.00,-0.00,-0.01,0.01
11.206,0.00,-0.00,0.04,0.04
11.216,0.00,-0.01,0.05,0.05
11.226,0.00,-0.01,0.03,0.03
11.236,-0.02,-0.00,0.03,0.03
11.246,-0.01,-0.01,0.05,0.05
11.256,-0.01,-0.01,0.05,0.06
11.266,-0.01,-0.02,0.03,0.03
11.276,-0.02,-0.00,0.02,0.02
11.286,0.00,0.01,-0.05,0.05
11.296,0.00,0.01,-0.01,0.02
11.306,0.02,0.03,0.03,0.04
11.316,-0.00,0.04,0.05,0.06
11.327,-0.04,0.01,0.01,0.04
11.337,-0.04,-0.03,-0.09,0.10
11.347,-0.01,-0.05,0.09,0.10
11.357,0.05,-0.05,0.09,0.11
11.367,0.04,-0.04,-0.07,0.09
11.377,-0.01,-0.02,-0.08,0.08
11.387,-0.04,0.02,-0.01,0.05
11.397,-0.06,0.08,0.05,0.11
11.407,-0.05,0.07,0.18,0.20
11.417,-0.02,0.06,0.20,0.21
11.427,0.00,0.05,0.07,0.09
11.437,-0.00,0.03,-0.08,0.08
11.447,-0.01,0.01,-0.12,0.12
11.458,0.00,0.00,-0.09,0.09
11.468,0.02,-0.03,-0.04,0.05
11.478,0.02,-0.05,0.01,0.05
11.488,0.02,-0.04,0.06,0.08
11.498,0.02,-0.01,0.07,0.07
11.508,-0.02,0.01,0.02,0.03
11.518,-0.02,-0.02,-0.04,0.05
11.528,0.03,-0.03,-0.01,0.04
11.538,0.01,-0.03,0.01,0.04
11.548,0.02,-0.03,0.02,0.04
11.558,0.00,-0.01,0.03,0.04
11.568,-0.02,-0.01,0.01,0.02
11.578,-0.01,0.01,-0.01,0.02
11.588,0.00,0.02,-0.01,0.02
11.598,0.02,0.03,0.02,0.04
11.608,0.03,0.04,0.04,0.07
11.619,0.01,0.05,0.14,0.15
11.629,-0.01,0.05,-0.09,0.10
11.639,-0.02,0.02,-0.01,0.03
11.649,-0.02,0.03,0.23,0.23
11.659,-0.01,-0.02,-0.14,0.14
11.669,-0.01,-0.02,-0.14,0.14
11.679,-0.00,0.02,0.05,0.06
11.689,0.02,0.05,0.04,0.07
11.699,0.01,0.04,0.06,0.07
11.709,-0.01,0.02,0.01,0.03
11.719,-0.03,0.01,-0.01,0.04
11.729,-0.04,0.00,-0.01,0.04
11.739,-0.02,-0.03,-0.05,0.07
11.749,-0.01,-0.05,-0.09,0.11
11.760,-0.00,-0.05,0.01,0.06
11.770,-0.02,-0.03,0.08,0.09
11.780,-0.00,-0.00,0.08,0.08
11.790,0.04,0.02,0.09,0.10
11.800,0.01,0.02,0.06,0.06
11.810,-0.01,0.01,0.02,0.02
11.820,-0.00,-0.00,-0.00,0.01
11.830,0.04,-0.02,-0.02,0.04
11.840,0.04,-0.02,0.01,0.05
11.850,0.02,-0.01,0.02,0.04
11.860,0.00,0.01,0.00,0.01
11.870,-0.01,0.03,-0.01,0.04
11.880,-0.03,0.04,0.02,0.05
11.890,-0.02,0.04,0.02,0.05
11.901,-0.01,0.02,0.04,0.05
11.911,-0.01,0.01,0.02,0.03
11.921,-0.01,-0.00,-0.01,0.01
11.931,-0.00,-0.01,0.01,0.01
11.941,-0.02,-0.01,0.03,0.04
11.951,-0.01,-0.01,0.02,0.02
11.961,0.00,-0.00,0.02,0.02
11.971,0.02,0.00,0.02,0.03
11.981,0.01,-0.01,0.00,0.01
11.991,-0.03,-0.00,0.00,0.03
12.001,-0.01,0.00,0.03,0.03
12.011,-0.00,0.00,0.03,0.03
12.021,-0.00,0.00,0.03,0.03
12.031,-0.00,-0.01,-0.00,0.01
12.041,-0.02,-0.01,0.00,0.02
12.052,-0.02,0.01,0.00,0.02
12.061,-0.01,0.01,0.02,0.02
12.072,0.00,0.02,0.03,0.03
12.082,-0.01,0.02,-0.00,0.02
12.092,0.02,0.01,0.02,0.03
12.102,0.02,0.00,0.03,0.03
12.112,0.00,0.00,0.01,0.01
12.122,-0.01,0.00,-0.01,0.01
12.132,0.01,0.01,0.01,0.01
12.142,-0.01,0.01,0.03,0.03
12.152,0.00,0.01,0.04,0.04
12.162,0.02,0.01,0.02,0.03
12.172,-0.01,-0.02,0.01,0.02
12.182,-0.01,-0.02,0.06,0.07
12.193,0.02,-0.02,0.09,0.09
12.203,0.01,-0.02,0.03,0.04
12.213,0.00,-0.01,-0.01,0.02
12.223,-0.00,-0.01,-0.05,0.05
12.233,0.02,-0.00,0.01,0.02
12.243,0.01,0.03,0.03,0.04
12.253,0.01,0.02,0.04,0.04
12.263,-0.03,0.01,0.02,0.03
12.273,-0.05,-0.02,-0.09,0.10
12.283,-0.01,-0.02,0.09,0.09
12.293,0.03,-0.02,0.08,0.09
12.303,0.02,-0.02,-0.03,0.04
12.313,-0.02,-0.02,-0.05,0.05
12.323,-0.05,0.03,0.01,0.06
12.333,-0.04,0.06,-0.00,0.07
12.344,-0.03,0.07,0.13,0.15
12.354,-0.01,0.08,0.19,0.21
12.364,0.02,0.04,0.11,0.12
12.374,0.01,0.02,-0.02,0.03
12.384,-0.01,-0.01,-0.09,0.09
12.394,0.01,-0.02,-0.10,0.10
12.404,0.01,-0.04,-0.07,0.08
12.414,0.03,-0.04,-0.03,0.06
12.424,0.03,-0.03,0.05,0.06
12.434,0.02,-0.01,0.06,0.06
12.444,-0.02,-0.01,0.03,0.04
12.454,-0.03,-0.01,-0.02,0.04
12.464,-0.01,-0.04,-0.02,0.04
12.475,0.01,-0.06,-0.01,0.06
12.484,0.02,-0.04,0.02,0.05
12.495,0.01,-0.02,0.02,0.03
12.505,-0.02,-0.00,0.01,0.02
12.515,-0.01,0.00,-0.00,0.01
12.525,-0.00,0.02,0.01,0.02
12.535,-0.01,0.04,0.02,0.04
12.545,-0.00,0.04,0.04,0.05
12.555,-0.00,0.05,0.07,0.08
12.565,0.00,0.06,0.11,0.12
12.575,-0.00,0.03,-0.14,0.14
12.585,-0.01,0.00,0.06,0.06
12.595,0.00,0.01,0.17,0.17
12.605,-0.01,-0.04,-0.15,0.16
12.615,-0.00,-0.01,-0.06,0.06
12.625,-0.01,0.05,0.06,0.08
12.636,-0.00,0.05,0.04,0.06
12.645,-0.00,0.05,0.05,0.07
12.656,-0.02,0.03,0.04,0.06
12.666,-0.01,0.02,0.06,0.06
12.676,-0.00,-0.01,-0.01,0.01
12.686,-0.01,-0.03,-0.11,0.12
12.696,-0.00,-0.04,-0.08,0.09
12.706,-0.03,-0.02,0.06,0.07
12.716,-0.02,-0.02,0.10,0.10
12.726,0.02,-0.00,0.07,0.07
12.736,0.03,-0.00,0.08,0.08
12.746,0.02,0.00,0.05,0.05
12.756,0.02,-0.01,-0.02,0.03
12.766,0.03,-0.01,-0.04,0.05
12.777,0.02,-0.00,0.02,0.03
12.787,0.02,-0.00,0.02,0.03
12.797,0.02,0.01,0.02,0.03
12.807,-0.00,0.02,-0.00,0.02
12.817,-0.02,0.03,0.01,0.04
12.827,-0.03,0.02,0.05,0.06
12.837,-0.02,0.04,0.04,0.06
12.847,-0.02,0.02,0.02,0.03
12.857,-0.02,0.00,0.01,0.02
12.867,-0.02,-0.01,0.01,0.02
12.877,-0.00,-0.00,0.03,0.03
12.887,-0.00,0.00,0.03,0.03
12.897,0.02,0.00,0.04,0.05
12.907,0.01,-0.00,0.02,0.02
12.917,-0.02,-0.01,0.03,0.04
12.927,-0.03,-0.02,0.03,0.04
12.938,-0.03,-0.02,0.04,0.05
12.948,-0.01,-0.00,0.02,0.02
12.958,-0.03,0.00,0.00,0.03
12.968,-0.01,-0.02,-0.00,0.02
12.978,-0.01,-0.00,0.00,0.01
12.988,0.01,0.00,0.00,0.01
12.998,0.00,0.02,-0.01,0.02
13.008,0.00,0.02,0.02,0.03
13.018,0.01,0.01,0.04,0.04
13.028,0.01,0.01,0.00,0.02
13.038,0.01,0.01,-0.02,0.03
13.048,0.02,0.01,0.06,0.06
13.058,0.02,-0.01,0.09,0.10
13.068,-0.00,-0.00,0.01,0.01
13.078,0.00,-0.02,-0.01,0.02
13.089,0.01,-0.01,-0.05,0.05
13.099,0.02,0.01,-0.03,0.04
13.109,0.01,0.03,0.02,0.04
13.119,0.00,0.04,0.04,0.06
13.129,-0.04,0.02,0.01,0.04
13.139,-0.03,-0.01,-0.12,0.12
13.149,-0.02,-0.03,0.08,0.09
13.159,0.02,-0.02,0.10,0.11
13.169,0.02,-0.04,-0.02,0.05
13.179,-0.01,-0.02,-0.05,0.05
13.189,-0.04,0.00,-0.00,0.04
13.199,-0.03,0.05,-0.03,0.06
13.209,-0.05,0.07,0.07,0.11
13.219,-0.03,0.08,0.19,0.21
13.230,-0.01,0.06,0.13,0.15
13.240,-0.00,0.04,-0.00,0.04
13.249,-0.01,0.02,-0.06,0.07
13.260,0.00,0.00,-0.09,0.09
13.270,-0.00,-0.02,-0.11,0.11
13.280,0.00,-0.03,-0.04,0.05
13.290,-0.00,-0.03,0.01,0.03
13.300,0.00,-0.01,0.06,0.06
13.310,-0.01,-0.00,0.05,0.05
13.320,-0.01,-0.01,0.01,0.02
13.330,-0.01,-0.02,-0.01,0.02
13.340,0.02,-0.05,-0.01,0.06
13.350,0.02,-0.03,0.01,0.04
13.360,0.01,-0.03,0.03,0.04
13.370,-0.03,-0.01,0.04,0.05
13.380,-0.02,0.01,0.03,0.04
13.391,0.00,0.03,-0.01,0.03
13.401,0.02,0.03,-0.00,0.04
13.411,0.01,0.03,0.01,0.04
13.421,0.02,0.03,0.04,0.05
13.431,0.01,0.06,0.13,0.14
13.441,0.00,0.06,-0.07,0.10
13.451,-0.01,0.02,-0.08,0.08
13.461,-0.02,-0.01,0.21,0.21
13.471,-0.01,-0.03,-0.07,0.08
13.481,0.00,-0.02,-0.11,0.11
13.491,0.00,0.03,0.07,0.07
13.501,-0.01,0.04,0.03,0.06
13.511,-0.00,0.04,0.02,0.05
13.521,-0.04,0.02,0.00,0.05
13.532,-0.04,0.01,0.02,0.04
13.542,-0.02,-0.01,0.04,0.04
13.552,-0.00,-0.02,-0.05,0.05
13.562,-0.01,-0.04,-0.08,0.09
13.572,-0.02,-0.04,0.01,0.05
13.582,-0.01,-0.01,0.03,0.04
13.592,0.02,0.00,0.04,0.05
13.602,0.03,0.03,0.08,0.09
13.612,-0.01,0.02,0.06,0.07
13.622,-0.01,-0.00,0.02,0.03
13.632,0.02,0.00,-0.02,0.03
13.642,0.04,-0.01,-0.03,0.05
13.652,0.04,-0.02,-0.01,0.04
13.662,0.01,0.01,0.01,0.02
13.672,-0.00,0.02,0.02,0.03
13.683,-0.00,0.01,0.00,0.02
13.693,-0.01,0.03,0.01,0.03
13.703,-0.00,0.04,0.02,0.04
13.713,-0.00,0.01,0.03,0.03
13.723,-0.01,-0.01,0.00,0.01
13.733,-0.02,-0.01,0.00,0.02
13.743,-0.02,-0.02,0.01,0.03
13.753,-0.01,-0.01,0.03,0.03
13.763,-0.02,-0.01,0.03,0.03
13.773,0.00,-0.00,0.02,0.02
13.783,-0.00,-0.01,0.01,0.01
13.793,-0.02,0.00,0.02,0.03
13.803,-0.02,0.00,0.02,0.02
13.814,-0.01,0.01,0.01,0.02
13.823,-0.02,0.01,0.01,0.02
13.834,-0.02,-0.00,0.01,0.02
13.844,-0.02,-0.01,0.02,0.03
13.854,-0.01,-0.00,-0.00,0.01
13.864,0.01,0.02,0.02,0.03
13.874,0.01,0.02,0.03,0.03
13.884,-0.01,0.02,0.01,0.02
13.894,-0.01,0.00,-0.02,0.03
13.904,0.01,0.00,0.04,0.04
13.914,0.03,-0.00,0.07,0.08
13.924,0.04,-0.02,0.01,0.05
13.934,0.01,-0.01,-0.02,0.03
13.944,-0.01,0.00,-0.04,0.04
13.954,0.01,-0.00,-0.00,0.01
13.964,0.03,0.02,0.04,0.05
13.975,0.00,0.02,0.02,0.03
13.985,-0.02,-0.02,-0.02,0.03
13.995,-0.03,-0.04,-0.05,0.07
14.005,0.00,-0.03,0.12,0.12
14.015,0.03,-0.02,0.13,0.13
14.025,0.02,-0.04,-0.01,0.05
14.035,-0.01,-0.04,-0.02,0.05
14.045,-0.05,-0.01,-0.01,0.05
14.055,-0.07,0.03,-0.06,0.10
14.065,-0.06,0.08,0.05,0.12
14.075,-0.04,0.08,0.18,0.20
14.085,0.01,0.06,0.14,0.16
14.095,0.01,0.04,0.03,0.05
14.106,-0.00,0.01,-0.05,0.05
14.115,-0.01,-0.02,-0.08,0.08
14.126,0.02,-0.03,-0.08,0.08
14.136,0.03,-0.06,-0.03,0.07
14.146,0.01,-0.05,0.01,0.05
14.156,-0.00,-0.01,0.05,0.05
14.166,-0.01,0.01,0.06,0.06
14.176,-0.00,-0.01,0.02,0.03
14.186,0.01,-0.04,-0.00,0.04
14.196,0.01,-0.05,-0.00,0.05
14.206,0.01,-0.05,0.03,0.06
14.216,-0.01,-0.03,0.03,0.04
14.226,-0.01,-0.02,0.02,0.03
14.236,-0.01,0.00,0.01,0.01
14.246,-0.01,0.02,-0.01,0.02
14.256,0.02,0.04,0.01,0.04
14.266,0.01,0.03,0.01,0.03
14.277,-0.00,0.03,0.03,0.04
14.287,0.00,0.05,0.14,0.15
14.297,-0.01,0.05,-0.04,0.07
14.307,0.00,-0.00,-0.07,0.07
14.317,-0.02,-0.01,0.19,0.19
14.327,-0.02,-0.03,-0.09,0.09
14.337,-0.01,-0.02,-0.10,0.11
14.347,-0.02,0.02,0.08,0.08
14.357,0.00,0.05,0.03,0.06
14.367,0.01,0.05,0.03,0.06
14.377,-0.02,0.02,0.02,0.03
14.387,-0.02,0.00,0.01,0.02
14.397,-0.02,0.01,0.02,0.02
14.408,-0.00,-0.01,-0.05,0.05
14.417,-0.01,-0.04,-0.09,0.10
14.428,-0.02,-0.05,-0.02,0.05
14.438,-0.01,-0.02,0.03,0.03
14.448,0.03,0.02,0.05,0.06
14.458,0.05,0.02,0.08,0.09
14.468,0.02,0.01,0.08,0.09
14.478,-0.01,-0.01,0.03,0.04
14.488,0.01,-0.03,-0.02,0.04
14.498,0.02,-0.02,-0.02,0.04
14.508,0.01,-0.01,-0.00,0.02
14.518,-0.01,0.01,0.01,0.02
14.528,-0.00,0.02,0.01,0.02
14.538,-0.01,0.02,0.02,0.03
14.548,-0.01,0.03,0.02,0.04
14.559,-0.01,0.02,0.02,0.03
14.569,-0.01,-0.00,0.01,0.02
14.579,-0.01,-0.00,0.01,0.01
14.589,-0.01,0.00,0.01,0.02
14.599,-0.01,-0.02,0.02,0.03
14.609,-0.03,-0.01,0.03,0.04
14.619,-0.00,-0.01,0.03,0.03
14.629,0.01,-0.00,0.03,0.03
14.639,0.00,0.01,0.03,0.03
14.649,-0.02,-0.01,0.02,0.03
14.659,-0.02,-0.01,0.03,0.04
14.669,-0.02,0.01,0.03,0.04
14.679,-0.01,-0.01,0.01,0.02
14.690,-0.01,-0.01,0.02,0.02
14.699,-0.01,-0.01,-0.01,0.02
14.710,-0.01,0.03,0.00,0.03
14.720,0.01,0.02,0.01,0.02
14.730,-0.01,0.02,0.03,0.04
14.740,-0.01,0.01,0.01,0.02
14.750,-0.00,0.01,0.00,0.01
14.760,0.01,0.00,0.04,0.04
14.770,0.00,-0.02,0.08,0.08
14.780,0.01,-0.01,0.05,0.05
14.790,0.02,-0.01,-0.02,0.03
14.800,0.00,-0.02,-0.05,0.06
14.810,0.00,-0.00,0.01,0.01
14.820,0.03,0.03,0.05,0.06
14.830,0.02,0.03,0.04,0.06
14.840,-0.02,0.00,-0.04,0.05
14.851,-0.05,-0.04,-0.09,0.10
14.861,-0.01,-0.02,0.10,0.10
14.871,0.03,-0.01,0.09,0.10
14.881,0.01,-0.03,-0.02,0.04
14.891,-0.03,-0.03,-0.02,0.05
14.901,-0.05,0.00,-0.01,0.05
14.911,-0.05,0.03,-0.04,0.07
14.921,-0.05,0.06,0.08,0.11
14.931,-0.00,0.07,0.17,0.19
14.941,0.03,0.06,0.12,0.14
14.951,0.03,0.03,0.00,0.04
14.961,0.02,0.00,-0.06,0.06
14.971,0.01,0.00,-0.09,0.09
14.981,0.00,-0.01,-0.09,0.09
14.991,0.00,-0.03,-0.03,0.04
15.002,0.02,-0.02,0.06,0.07
15.012,0.00,-0.00,0.06,0.06
15.022,-0.01,0.00,0.05,0.05
15.032,-0.03,-0.01,-0.00,0.03
15.042,-0.01,-0.02,-0.02,0.03
15.052,0.02,-0.05,-0.02,0.06
15.062,-0.00,-0.07,0.01,0.07
15.072,-0.01,-0.05,0.04,0.06
15.082,-0.00,-0.02,0.03,0.03
15.092,-0.01,-0.00,0.01,0.02
15.102,-0.00,0.01,-0.00,0.01
15.112,-0.00,0.04,-0.00,0.04
15.122,-0.01,0.04,0.00,0.04
15.132,0.01,0.05,0.03,0.06
15.142,-0.00,0.07,0.12,0.14
15.153,0.00,0.06,-0.06,0.08
15.163,-0.01,0.01,-0.07,0.07
15.173,0.00,-0.02,0.21,0.21
15.183,0.02,-0.04,-0.11,0.12
15.193,0.00,-0.01,-0.14,0.14
15.203,-0.00,0.05,0.07,0.09
15.213,0.01,0.06,0.05,0.07
15.223,0.00,0.03,0.04,0.05
15.233,-0.02,0.02,0.02,0.04
15.243,-0.04,0.02,0.01,0.05
15.253,-0.02,0.02,0.01,0.03
15.263,0.00,-0.01,-0.04,0.05
15.273,0.00,-0.06,-0.10,0.11
15.283,0.01,-0.06,0.01,0.06
15.293,-0.02,-0.03,0.05,0.06
15.304,-0.00,0.00,0.02,0.02
15.314,0.02,0.01,0.05,0.06
15.324,0.02,0.02,0.05,0.06
15.334,-0.01,0.01,0.03,0.03
15.344,-0.02,-0.01,0.01,0.03
15.354,0.02,-0.01,0.01,0.03
15.364,0.04,-0.02,0.01,0.04
15.374,0.01,0.00,-0.01,0.02
15.384,0.02,0.00,-0.01,0.02
15.394,-0.00,0.01,-0.01,0.02
15.404,-0.02,0.03,0.01,0.04
15.414,-0.00,0.04,0.02,0.04
15.424,0.00,0.02,0.03,0.03
15.434,-0.00,0.00,0.01,0.01
15.445,-0.00,-0.00,0.01,0.01
15.455,-0.00,0.00,0.01,0.01
15.465,0.00,0.00,-0.00,0.00
15.475,-0.00,0.01,0.02,0.02
15.486,-0.01,-0.01,0.00,0.01
15.495,-0.01,-0.01,0.02,0.03
15.505,-0.02,-0.01,0.03,0.04
15.515,-0.03,0.00,0.03,0.04
15.525,0.00,-0.00,0.02,0.02
15.535,-0.01,-0.00,0.02,0.03
15.545,-0.01,-0.00,0.03,0.04
15.555,0.01,-0.01,0.02,0.02
15.565,-0.01,-0.01,-0.03,0.03
15.575,-0.03,-0.00,0.01,0.03
15.586,0.00,0.01,0.08,0.08
15.596,0.00,0.00,0.07,0.07
15.606,0.03,0.01,0.04,0.05
15.616,0.03,-0.00,-0.00,0.03
15.626,0.02,-0.00,-0.05,0.06
15.636,-0.00,0.02,-0.01,0.03
15.646,0.00,0.02,0.04,0.04
15.656,-0.00,0.01,0.03,0.03
15.666,-0.02,0.01,-0.02,0.03
15.676,-0.01,-0.02,-0.06,0.07
15.686,0.02,-0.02,0.07,0.08
15.696,0.05,-0.01,0.09,0.11
15.706,0.03,-0.03,-0.01,0.04
15.716,-0.01,-0.04,-0.01,0.04
15.726,-0.02,-0.01,-0.01,0.03
15.737,-0.04,0.04,-0.01,0.05
15.747,-0.05,0.08,0.09,0.13
15.757,-0.02,0.07,0.16,0.18
15.767,0.02,0.06,0.12,0.13
15.777,0.00,0.04,-0.00,0.04
15.787,0.00,0.01,-0.09,0.09
15.797,0.00,-0.01,-0.09,0.09
15.807,-0.00,-0.02,-0.06,0.06
15.817,0.01,-0.03,-0.03,0.05
15.827,0.01,-0.02,0.03,0.03
15.837,-0.01,0.00,0.08,0.08
15.847,-0.01,0.00,0.06,0.06
15.857,-0.03,-0.00,0.01,0.03
15.867,0.00,-0.03,-0.01,0.03
15.877,0.01,-0.04,0.00,0.04
15.888,-0.00,-0.05,0.03,0.06
15.898,-0.01,-0.03,0.03,0.04
15.908,-0.01,-0.02,0.02,0.03
15.918,0.01,0.01,-0.00,0.01
15.928,0.01,0.02,-0.01,0.03
15.938,0.01,0.02,-0.01,0.03
15.948,0.01,0.01,0.00,0.01
15.958,-0.01,0.02,0.02,0.03
15.968,-0.00,0.04,0.11,0.11
15.978,-0.02,0.06,-0.00,0.06
15.988,-0.04,0.01,-0.10,0.10
15.998,-0.02,0.02,0.22,0.22
16.008,-0.00,-0.04,-0.07,0.08
16.018,-0.00,-0.03,-0.15,0.15
16.028,-0.01,0.01,0.09,0.09
16.039,0.00,0.01,0.06,0.06
16.049,0.00,0.03,0.05,0.06
16.059,-0.01,0.02,0.01,0.03
16.069,-0.02,0.01,-0.01,0.02
16.079,-0.03,-0.00,-0.01,0.04
16.089,-0.04,0.00,-0.04,0.06
16.099,-0.03,-0.04,-0.09,0.10
16.109,-0.00,-0.04,-0.02,0.04
16.119,-0.01,-0.02,0.05,0.06
16.129,0.00,-0.01,0.04,0.04
16.139,0.01,0.02,0.05,0.05
16.149,0.00,0.03,0.08,0.09
16.159,-0.02,-0.01,0.02,0.03
16.169,-0.01,-0.02,-0.02,0.03
16.179,0.01,-0.02,-0.02,0.03
16.190,0.01,-0.01,0.00,0.02
16.200,0.03,0.00,0.02,0.03
16.210,0.03,0.02,0.03,0.05
16.220,0.04,0.03,0.02,0.05
16.230,0.02,0.03,0.00,0.03
16.240,-0.02,0.04,0.01,0.05
16.250,-0.03,0.02,0.03,0.05
16.260,-0.03,-0.01,0.02,0.03
16.270,-0.03,-0.01,0.01,0.03
16.280,-0.02,-0.02,0.01,0.03
16.290,0.01,-0.00,0.01,0.02
16.300,0.03,0.01,0.05,0.05
16.310,0.02,-0.00,0.03,0.04
16.320,0.00,-0.01,0.00,0.01
16.330,-0.02,-0.01,0.01,0.03
16.341,-0.02,0.00,0.02,0.03
16.351,-0.01,-0.00,0.01,0.01
16.361,-0.01,0.02,0.02,0.03
16.371,-0.03,0.00,0.02,0.03
16.381,-0.03,-0.01,0.02,0.04
16.391,0.01,-0.00,0.04,0.04
16.401,0.02,-0.00,-0.00,0.02
16.411,0.03,-0.01,0.00,0.03
16.421,0.00,-0.00,-0.01,0.01
16.431,0.01,0.01,0.01,0.02
16.441,0.01,0.01,0.05,0.05
16.451,0.02,-0.01,0.03,0.04
16.461,0.02,-0.00,0.00,0.02
16.471,0.04,0.01,-0.04,0.06
16.482,0.02,0.02,-0.02,0.03
16.492,0.01,0.03,0.03,0.05
16.502,0.01,0.02,0.03,0.03
16.512,-0.02,0.01,-0.01,0.03
16.522,-0.03,-0.03,-0.07,0.08
16.532,-0.02,-0.03,0.09,0.10
16.542,0.02,-0.01,0.13,0.13
16.552,0.02,-0.04,0.01,0.04
16.562,-0.01,-0.05,-0.03,0.06
16.572,-0.04,-0.01,-0.02,0.04
16.582,-0.06,0.04,-0.04,0.08
16.592,-0.04,0.07,0.06,0.10
16.602,-0.02,0.08,0.18,0.20
16.612,-0.01,0.06,0.16,0.17
16.623,0.01,0.03,0.04,0.05
16.633,-0.01,-0.00,-0.06,0.06
16.643,-0.01,-0.03,-0.09,0.10
16.653,0.01,-0.03,-0.09,0.10
16.663,0.01,-0.05,-0.06,0.08
16.673,0.02,-0.05,0.01,0.05
16.683,0.03,-0.02,0.08,0.08
16.693,-0.00,-0.01,0.08,0.08
16.703,-0.03,0.01,0.04,0.05
16.713,0.00,-0.02,0.00,0.02
16.723,-0.00,-0.05,-0.02,0.06
16.733,0.02,-0.05,-0.03,0.06
16.743,-0.01,-0.03,0.01,0.03
16.753,-0.01,0.00,0.02,0.03
16.764,0.01,0.01,0.01,0.02
16.773,0.01,0.03,-0.02,0.04
16.784,0.02,0.03,-0.00,0.03
16.794,0.01,0.04,0.00,0.04
16.804,0.01,0.05,0.02,0.05
16.814,0.01,0.05,0.11,0.12
16.824,-0.02,0.06,0.02,0.06
16.834,-0.01,0.02,-0.11,0.11
16.844,-0.02,0.00,0.18,0.18
16.854,-0.00,-0.04,-0.07,0.08
16.864,-0.02,-0.05,-0.17,0.18
16.874,-0.02,0.02,0.10,0.10
16.884,0.01,0.03,0.05,0.06
16.894,0.01,0.05,0.04,0.06
16.904,-0.01,0.01,0.01,0.02
16.914,-0.05,0.00,-0.01,0.05
16.925,-0.02,0.01,0.02,0.03
16.935,-0.00,-0.02,-0.02,0.03
16.945,-0.00,-0.04,-0.06,0.07
16.955,-0.01,-0.04,-0.03,0.05
16.965,-0.03,-0.02,0.03,0.05
16.975,-0.01,-0.01,0.02,0.02
16.985,0.03,0.02,0.05,0.06
16.995,0.02,0.02,0.07,0.08
17.005,-0.00,0.01,0.04,0.05
17.015,-0.01,-0.00,0.01,0.01
17.025,0.02,-0.02,-0.03,0.04
17.035,0.02,-0.01,-0.02,0.03
17.045,0.01,0.00,-0.00,0.01
17.055,0.00,0.01,0.01,0.01
17.065,0.00,0.03,0.03,0.04
17.076,-0.01,0.02,0.02,0.03
17.086,-0.01,0.03,0.02,0.03
17.096,-0.01,0.02,0.03,0.04
17.106,-0.02,-0.00,0.01,0.02
17.116,0.00,0.00,-0.02,0.02
17.126,-0.01,-0.01,-0.01,0.02
17.136,-0.02,-0.03,0.02,0.04
17.146,0.00,0.00,0.03,0.03
17.156,0.01,0.02,0.05,0.05
17.166,0.01,0.02,0.01,0.02
17.176,0.00,-0.00,0.00,0.00
17.186,0.02,0.00,0.00,0.02
17.196,-0.02,0.00,0.00,0.02
17.206,-0.02,-0.00,0.02,0.02
17.217,-0.02,-0.02,0.01,0.03
17.227,0.00,-0.00,0.02,0.02
17.237,0.02,0.01,0.01,0.02
17.247,0.00,0.01,0.02,0.03
17.257,0.00,0.01,0.01,0.01
17.267,-0.02,0.00,0.00,0.02
17.277,-0.02,0.00,0.00,0.02
17.287,0.00,0.00,0.03,0.03
17.297,0.01,0.00,0.07,0.07
17.307,-0.00,-0.02,0.03,0.03
17.317,0.02,-0.01,-0.01,0.03
17.327,-0.00,-0.02,-0.07,0.07
17.337,0.02,0.00,-0.00,0.02
17.347,0.03,0.02,0.05,0.06
17.358,0.02,0.02,0.02,0.03
17.368,-0.01,0.01,-0.03,0.04
17.378,-0.04,-0.03,-0.06,0.08
17.388,-0.01,-0.03,0.11,0.11
17.398,0.02,-0.03,0.15,0.16
17.408,0.01,-0.05,0.01,0.05
17.418,0.01,-0.05,-0.05,0.07
17.428,-0.01,-0.02,-0.03,0.04
17.438,-0.04,0.03,-0.06,0.08
17.448,-0.05,0.07,0.05,0.10
17.458,-0.02,0.08,0.17,0.19
17.468,0.00,0.07,0.15,0.16
17.478,0.01,0.05,0.05,0.08
17.488,0.00,0.03,-0.04,0.05
17.498,-0.01,-0.00,-0.09,0.09
17.509,-0.00,-0.03,-0.09,0.09
17.519,0.02,-0.05,-0.05,0.08
17.529,0.02,-0.04,0.00,0.04
17.539,0.02,-0.01,0.07,0.08
17.549,-0.00,-0.00,0.06,0.06
17.559,-0.03,-0.01,0.02,0.04
17.569,-0.03,-0.02,-0.04,0.06
17.579,-0.00,-0.01,-0.05,0.05
17.589,0.02,-0.03,-0.01,0.04
17.599,0.00,-0.02,0.04,0.04
17.609,0.01,-0.01,0.03,0.03
17.619,0.00,-0.00,-0.00,0.01
17.629,-0.01,0.04,-0.01,0.04
17.639,0.01,0.03,-0.01,0.04
17.649,0.00,0.02,-0.03,0.04
17.660,0.01,0.04,0.00,0.04
17.670,0.00,0.06,0.14,0.15
17.680,0.02,0.06,0.01,0.06
17.690,-0.00,0.01,-0.11,0.11
17.700,-0.01,-0.00,0.17,0.17
17.710,-0.01,-0.03,-0.05,0.06
17.720,-0.00,-0.03,-0.12,0.13
17.730,-0.00,0.01,0.10,0.10
17.740,-0.01,0.05,0.05,0.07
17.750,-0.01,0.04,0.02,0.04
17.760,-0.01,0.02,0.02,0.03
17.770,-0.03,0.01,-0.01,0.03
17.780,-0.03,-0.01,0.03,0.04
17.790,-0.03,-0.01,-0.00,0.03
17.801,-0.01,-0.04,-0.06,0.07
17.811,-0.02,-0.03,-0.02,0.04
17.821,-0.01,-0.03,0.02,0.04
17.831,-0.00,-0.01,-0.00,0.01
17.841,0.00,0.02,0.05,0.06
17.851,0.02,0.02,0.06,0.07
17.861,-0.01,0.01,0.05,0.05
17.871,-0.01,-0.01,0.00,0.01
17.881,0.01,-0.02,-0.02,0.03
17.891,0.03,-0.01,-0.02,0.04
17.901,0.01,0.01,0.01,0.02
17.911,0.00,0.01,0.02,0.02
17.921,0.01,0.00,0.03,0.03
17.931,-0.00,0.03,0.01,0.03
17.941,-0.02,0.02,0.01,0.03
17.951,-0.02,0.02,0.02,0.03
17.962,0.00,0.03,0.02,0.03
17.972,-0.01,-0.00,0.01,0.01
17.982,-0.02,0.00,-0.01,0.02
17.992,-0.00,-0.01,0.01,0.02
18.002,-0.00,-0.01,0.02,0.03
18.012,-0.00,-0.01,-0.00,0.01
18.022,-0.00,0.00,0.02,0.02
18.032,0.01,-0.01,0.01,0.02
18.042,-0.00,0.00,0.01,0.01
18.052,-0.01,-0.01,0.01,0.01
18.062,-0.03,-0.00,0.01,0.03
18.072,-0.02,-0.00,0.01,0.02
18.082,-0.03,-0.00,0.03,0.04
18.093,-0.01,0.01,0.00,0.02
18.103,0.01,0.01,0.01,0.01
18.113,0.01,0.01,0.01,0.01
18.123,0.01,0.01,0.02,0.02
18.133,0.02,0.01,0.04,0.05
18.143,0.02,-0.00,0.01,0.02
18.153,0.01,-0.01,-0.02,0.03
18.163,-0.00,0.02,-0.00,0.02
18.173,0.01,-0.01,0.08,0.08
18.183,0.01,-0.02,0.06,0.07
18.193,0.01,-0.01,0.01,0.02
18.203,-0.01,-0.01,-0.04,0.05
18.213,-0.01,-0.01,-0.04,0.04
18.223,0.01,0.02,0.04,0.05
18.233,0.02,0.02,0.04,0.05
18.244,-0.00,0.02,0.02,0.03
18.254,-0.04,-0.02,-0.08,0.09
18.264,-0.02,-0.03,0.01,0.04
18.274,-0.00,-0.02,0.13,0.13
18.284,0.01,-0.02,0.08,0.08
18.294,0.00,-0.03,-0.02,0.03
18.304,-0.01,-0.03,-0.00,0.03
18.314,-0.04,0.02,-0.02,0.05
18.324,-0.06,0.05,-0.03,0.09
18.334,-0.04,0.09,0.10,0.14
18.344,-0.01,0.09,0.15,0.17
18.354,0.02,0.05,0.10,0.11
18.364,0.02,0.03,0.02,0.04
18.374,-0.00,0.01,-0.04,0.04
18.384,0.00,-0.01,-0.06,0.06
18.395,0.01,-0.03,-0.08,0.09
18.405,0.02,-0.06,-0.05,0.08
18.415,0.02,-0.05,0.04,0.06
18.425,0.00,-0.02,0.06,0.06
18.435,-0.02,0.01,0.04,0.04
18.445,-0.01,-0.01,-0.00,0.02
18.455,0.00,-0.04,-0.03,0.05
18.465,-0.01,-0.04,-0.04,0.06
18.475,-0.01,-0.04,0.00,0.04
18.485,0.00,-0.02,0.02,0.03
18.495,-0.02,0.00,0.03,0.03
18.505,-0.01,0.02,-0.02,0.03
18.515,0.03,0.03,-0.05,0.06
18.525,0.01,0.03,-0.02,0.04
18.535,0.01,0.04,-0.00,0.05
18.546,0.02,0.05,0.03,0.06
18.556,-0.00,0.05,0.14,0.15
18.566,-0.01,0.04,-0.12,0.12
18.576,-0.02,0.01,-0.01,0.03
18.586,-0.02,0.00,0.17,0.17
18.596,0.00,-0.04,-0.17,0.18
18.606,0.01,-0.02,-0.06,0.06
18.616,-0.00,0.01,0.10,0.10
18.626,0.01,0.03,0.02,0.04
18.636,-0.02,0.03,0.05,0.06
18.646,-0.01,0.01,0.01,0.02
18.656,-0.02,0.01,0.00,0.03
18.666,-0.02,-0.01,0.01,0.02
18.676,-0.01,-0.04,-0.03,0.05
18.687,-0.00,-0.04,-0.06,0.07
18.697,-0.01,-0.03,-0.00,0.03
18.707,-0.02,-0.00,0.01,0.02
18.717,0.01,0.02,0.02,0.03
18.727,0.02,0.02,0.06,0.07
18.737,0.01,0.01,0.05,0.06
18.747,0.01,-0.01,0.01,0.02
18.757,0.02,-0.01,-0.02,0.03
18.767,0.02,-0.00,-0.02,0.03
18.777,0.02,-0.00,-0.03,0.04
18.787,0.01,0.00,-0.01,0.01
18.797,0.01,0.02,0.03,0.03
18.807,0.02,0.03,0.00,0.04
18.817,-0.01,0.03,-0.01,0.03
18.828,-0.03,0.01,0.03,0.04
18.838,-0.02,0.01,0.02,0.03
18.848,-0.01,-0.00,0.02,0.02
18.858,-0.02,-0.01,0.00,0.02
18.868,-0.02,-0.01,0.01,0.03
18.878,-0.01,-0.02,0.01,0.02
18.888,-0.00,0.00,0.01,0.01
18.898,0.01,-0.00,0.03,0.03
18.908,-0.00,-0.00,0.02,0.02
18.918,-0.02,-0.01,0.00,0.02
18.928,-0.02,-0.02,0.01,0.03
18.938,-0.02,0.00,0.01,0.02
18.948,-0.01,-0.01,-0.00,0.01
18.958,0.01,0.00,-0.02,0.02
18.968,-0.01,0.01,-0.00,0.01
18.979,-0.01,0.01,0.01,0.02
18.989,-0.00,0.01,0.01,0.02
18.999,0.00,0.02,0.02,0.03
19.009,0.02,0.01,0.01,0.03
19.019,0.01,0.02,0.03,0.03
19.029,0.01,0.01,0.03,0.03
19.039,0.02,-0.00,-0.02,0.03
19.049,0.00,0.01,-0.01,0.01
19.059,0.01,-0.02,0.08,0.08
19.069,-0.00,-0.02,0.06,0.06
19.079,0.01,-0.01,0.00,0.02
19.089,0.01,-0.02,-0.02,0.03
19.099,0.01,-0.01,-0.06,0.07
19.109,0.02,0.01,0.00,0.03
19.119,-0.00,0.02,0.03,0.03
19.129,0.01,0.03,0.02,0.04
19.140,-0.03,-0.01,-0.02,0.04
19.150,-0.04,-0.02,-0.03,0.05
19.160,-0.01,-0.02,0.14,0.14
19.170,0.04,-0.04,0.09,0.11
19.180,0.02,-0.04,-0.00,0.04
19.190,-0.02,-0.01,-0.00,0.02
19.200,-0.05,0.01,0.01,0.05
19.210,-0.07,0.06,-0.06,0.11
19.220,-0.06,0.10,0.07,0.13
19.230,-0.02,0.09,0.13,0.16
19.240,0.01,0.06,0.09,0.11
19.250,-0.00,0.03,0.03,0.04
19.260,0.01,0.03,-0.02,0.04
19.271,0.00,-0.01,-0.06,0.06
19.281,0.03,-0.03,-0.06,0.08
19.291,0.04,-0.05,-0.04,0.08
19.301,0.03,-0.05,0.01,0.06
19.311,-0.01,-0.02,0.06,0.06
19.321,-0.03,-0.00,0.05,0.06
19.331,-0.04,-0.01,0.02,0.04
19.341,-0.01,-0.03,-0.01,0.03
19.351,0.01,-0.05,-0.04,0.06
19.361,0.02,-0.04,0.00,0.05
19.371,0.01,-0.02,0.00,0.02
19.381,-0.01,-0.01,-0.01,0.01
19.391,-0.00,0.02,-0.02,0.03
19.401,0.00,0.04,-0.02,0.04
19.411,-0.00,0.05,-0.01,0.05
19.422,0.00,0.04,-0.02,0.04
19.432,0.01,0.03,0.02,0.04
19.442,0.03,0.03,0.10,0.11
19.452,-0.01,0.06,-0.01,0.06
19.462,-0.02,0.01,-0.12,0.13
19.472,-0.01,-0.00,0.20,0.20
19.482,-0.01,-0.02,-0.05,0.05
19.492,0.00,-0.02,-0.15,0.15
19.502,-0.00,0.02,0.09,0.09
19.512,-0.02,0.03,0.06,0.07
19.522,-0.01,0.03,0.03,0.04
19.532,-0.01,0.01,-0.01,0.02
19.542,-0.02,0.00,0.00,0.02
19.552,-0.03,-0.03,0.03,0.05
19.562,-0.01,-0.03,-0.02,0.04
19.572,-0.01,-0.03,-0.08,0.09
19.583,0.00,-0.04,-0.03,0.05
19.593,-0.01,-0.02,0.02,0.03
19.603,-0.00,-0.00,0.01,0.01
19.613,0.04,0.01,0.07,0.08
19.623,0.06,-0.00,0.07,0.09
19.633,0.03,-0.01,0.04,0.05
19.643,0.02,-0.03,-0.03,0.04
19.653,0.05,-0.02,-0.04,0.06
19.663,0.02,-0.02,-0.02,0.03
19.673,0.01,-0.00,-0.00,0.01
19.683,-0.01,0.03,0.04,0.05
19.693,-0.02,0.02,0.03,0.04
19.703,0.01,0.02,0.00,0.02
19.713,0.00,0.01,0.01,0.01
19.724,0.01,0.03,0.02,0.04
19.734,0.00,0.02,0.00,0.02
19.744,-0.02,0.00,0.00,0.02
19.754,-0.02,-0.01,0.01,0.02
19.764,-0.01,0.01,0.02,0.02
19.774,-0.00,-0.01,0.02,0.02
19.784,-0.01,-0.01,0.01,0.02
19.794,-0.02,-0.00,0.04,0.04
19.804,-0.01,0.01,0.04,0.04
19.814,-0.02,-0.00,0.01,0.02
19.824,-0.02,-0.00,0.01,0.02
19.834,-0.02,0.00,-0.00,0.02
19.844,-0.01,0.02,0.01,0.02
19.854,-0.00,0.02,-0.00,0.02
19.864,-0.01,0.01,-0.02,0.02
19.875,0.01,0.00,0.01,0.01
19.885,0.01,0.02,0.00,0.02
19.895,0.00,0.02,-0.01,0.02
19.905,-0.00,0.01,0.02,0.02
19.915,0.00,0.01,0.06,0.06
19.925,0.01,0.00,0.00,0.01
19.935,-0.01,-0.00,-0.01,0.02
19.945,-0.01,0.01,0.03,0.04
19.955,0.01,-0.01,0.07,0.07
19.965,0.00,-0.01,0.00,0.01
19.975,0.01,-0.01,-0.03,0.03
19.985,0.00,-0.01,-0.03,0.04
19.995,-0.01,-0.01,-0.04,0.04
20.005,0.01,0.00,0.03,0.04
20.016,0.01,0.01,0.02,0.03
20.026,-0.01,0.01,0.02,0.03
20.036,-0.04,-0.02,-0.07,0.09
20.046,-0.01,-0.02,0.07,0.08
20.056,-0.01,-0.03,0.12,0.12
20.066,0.01,-0.06,0.05,0.07
20.076,0.01,-0.05,-0.02,0.05
20.086,-0.00,-0.01,0.01,0.02
20.096,-0.04,0.02,-0.02,0.05
20.106,-0.08,0.06,0.00,0.10
20.116,-0.05,0.08,0.12,0.15
20.126,0.01,0.05,0.12,0.13
20.136,0.05,0.05,0.07,0.10
20.146,0.02,0.03,0.01,0.04
20.157,-0.02,0.01,-0.06,0.06
20.167,-0.01,-0.00,-0.09,0.09
20.177,0.04,-0.04,-0.05,0.08
20.187,0.04,-0.05,-0.01,0.06
20.197,0.03,-0.03,0.03,0.05
20.207,0.01,-0.01,0.05,0.05
20.217,-0.02,-0.01,0.04,0.04
20.227,-0.01,-0.01,-0.02,0.02
20.237,0.01,-0.03,-0.04,0.05
20.247,0.01,-0.05,-0.01,0.05
20.257,0.01,-0.02,0.01,0.02
20.267,-0.00,-0.02,0.02,0.03
20.277,0.00,-0.01,0.00,0.01
20.287,-0.00,0.03,-0.00,0.03
20.297,0.00,0.04,-0.02,0.04
20.307,0.02,0.03,-0.01,0.04
20.318,0.01,0.03,-0.00,0.03
20.328,0.01,0.03,0.03,0.05
20.338,-0.00,0.06,0.13,0.14
20.348,-0.02,0.05,-0.16,0.16
20.358,-0.02,0.00,0.01,0.02
20.368,-0.02,-0.01,0.12,0.13
20.378,-0.01,-0.05,-0.13,0.14
20.388,0.02,-0.01,0.00,0.03
20.398,-0.01,0.03,0.08,0.09
20.408,0.00,0.05,0.02,0.06
20.418,-0.00,0.05,0.02,0.05
20.428,-0.02,0.03,0.00,0.03
20.438,-0.03,0.00,0.01,0.03
20.448,-0.01,-0.02,0.02,0.03
20.458,0.00,-0.03,-0.05,0.06
20.469,0.01,-0.03,-0.07,0.08
20.479,-0.00,-0.03,0.01,0.03
20.489,-0.01,-0.01,0.00,0.01
20.499,0.00,0.02,0.04,0.04
20.509,0.04,0.03,0.06,0.08
20.519,0.04,0.01,0.04,0.05
20.529,0.00,-0.02,0.01,0.02
20.539,-0.01,-0.03,-0.01,0.03
20.549,0.03,-0.01,-0.03,0.04
20.559,0.03,0.01,-0.01,0.03
20.569,0.02,0.01,0.02,0.03
20.579,0.00,0.01,0.03,0.03
20.589,-0.02,0.00,0.01,0.02
20.599,-0.01,0.03,-0.02,0.03
20.609,-0.01,0.02,0.03,0.04
20.620,-0.01,0.00,0.03,0.03
20.630,-0.00,-0.01,0.02,0.02
20.640,0.00,-0.02,-0.00,0.02
20.650,-0.01,0.00,0.02,0.02
20.660,-0.01,0.00,0.01,0.02
20.670,-0.00,-0.00,0.03,0.03
20.680,0.00,0.00,0.03,0.03
20.690,0.00,0.01,0.02,0.02
20.700,-0.02,-0.00,0.03,0.04
20.710,-0.03,-0.01,0.03,0.05
20.720,-0.02,-0.01,0.02,0.03
20.730,-0.01,-0.01,0.02,0.03
20.740,-0.01,-0.01,0.01,0.02
20.750,-0.01,-0.00,0.01,0.02
20.761,0.01,0.02,0.01,0.02
20.771,-0.00,0.02,-0.00,0.02
20.781,-0.00,0.02,0.01,0.02
20.791,-0.00,0.02,0.04,0.05
20.801,-0.01,0.01,0.00,0.01
20.811,-0.00,-0.01,-0.01,0.01
20.821,-0.01,-0.00,0.03,0.03
20.831,0.01,-0.00,0.04,0.04
20.841,0.03,-0.02,-0.01,0.04
20.851,0.01,-0.00,-0.01,0.01
20.861,0.01,0.00,-0.03,0.03
20.871,-0.01,0.02,-0.02,0.03
20.881,0.00,0.04,0.03,0.05
20.891,0.00,0.05,0.01,0.05
20.901,0.00,0.01,-0.01,0.01
20.912,-0.02,-0.01,-0.07,0.07
20.922,0.01,-0.01,0.08,0.08
20.932,0.02,-0.03,0.09,0.10
20.942,0.01,-0.04,0.03,0.05
20.952,0.02,-0.04,-0.03,0.05
20.962,-0.00,-0.01,-0.00,0.01
20.972,-0.07,0.03,-0.07,0.11
20.982,-0.07,0.08,-0.00,0.11
20.992,-0.05,0.10,0.13,0.17
21.002,-0.00,0.07,0.10,0.12
21.012,0.03,0.03,0.04,0.06
21.022,0.01,0.02,-0.01,0.02
21.032,-0.01,0.00,-0.03,0.03
21.042,-0.01,-0.03,-0.05,0.06
21.053,0.02,-0.04,-0.03,0.06
21.063,0.03,-0.03,-0.01,0.05
21.073,0.02,-0.03,0.03,0.05
21.083,-0.01,-0.02,0.04,0.05
21.093,-0.02,-0.00,0.02,0.03
21.103,-0.02,-0.01,-0.03,0.04
21.113,-0.02,-0.02,-0.04,0.05
21.123,-0.00,-0.04,-0.02,0.04
21.133,0.00,-0.02,-0.01,0.02
21.143,0.01,-0.01,0.02,0.02
21.153,0.00,0.02,0.01,0.02
21.163,-0.01,0.02,-0.01,0.02
21.173,0.01,0.03,-0.02,0.04
21.183,0.02,0.04,-0.02,0.05
21.194,0.01,0.03,-0.00,0.04
21.204,0.01,0.06,0.07,0.09
21.214,-0.00,0.08,0.11,0.13
21.224,-0.00,0.04,-0.18,0.19
21.234,-0.01,0.01,0.08,0.08
21.244,-0.03,-0.01,0.08,0.09
21.254,-0.01,-0.04,-0.15,0.15
21.264,-0.01,0.01,0.03,0.03
21.274,-0.02,0.03,0.10,0.10
21.284,-0.01,0.04,0.03,0.05
21.294,-0.01,0.02,-0.01,0.02
21.304,-0.02,-0.00,0.00,0.02
21.314,-0.01,-0.02,0.04,0.04
21.324,-0.02,-0.02,0.04,0.05
21.334,-0.01,-0.03,-0.03,0.04
21.344,-0.01,-0.02,-0.05,0.05
21.355,-0.03,-0.01,-0.01,0.03
21.365,-0.02,-0.00,-0.02,0.03
21.375,0.00,0.02,0.04,0.05
21.385,0.01,0.01,0.06,0.06
21.395,0.02,0.02,0.02,0.04
21.405,0.01,0.00,0.03,0.03
21.415,-0.01,-0.02,-0.00,0.02
21.425,0.01,-0.03,-0.02,0.03
21.435,0.00,-0.03,0.01,0.03
21.445,0.02,0.01,0.05,0.06
21.455,0.01,-0.00,0.05,0.05
21.465,0.01,0.03,0.01,0.03
21.475,0.00,0.03,0.00,0.03
21.486,-0.01,0.02,-0.00,0.02
21.495,-0.01,-0.00,0.02,0.02
21.506,-0.02,0.00,-0.01,0.02
21.516,-0.02,-0.00,-0.02,0.03
21.526,-0.02,0.01,0.01,0.03
21.536,-0.02,0.00,0.01,0.02
21.546,-0.01,-0.02,0.02,0.03
21.556,-0.00,0.00,0.01,0.01
21.566,-0.01,0.00,-0.01,0.02
21.576,-0.01,-0.01,0.01,0.01
21.586,-0.01,0.01,0.00,0.02
21.596,-0.01,0.02,0.01,0.02
21.606,0.00,0.02,0.00,0.02
21.616,0.01,-0.01,0.01,0.02
21.626,0.02,0.01,-0.01,0.02
21.636,0.01,0.02,-0.01,0.02
21.647,0.02,0.01,-0.01,0.02
21.657,0.01,-0.01,0.02,0.02
21.667,-0.00,0.01,-0.01,0.01
21.677,0.00,-0.01,-0.04,0.04
21.687,-0.00,-0.00,0.02,0.02
21.697,0.01,0.01,0.05,0.05
21.707,0.02,-0.01,-0.01,0.02
21.717,0.01,0.00,-0.02,0.02
21.727,0.02,-0.00,-0.02,0.03
21.737,0.02,-0.01,-0.02,0.03
21.747,0.02,0.01,0.03,0.04
21.757,0.03,0.02,0.01,0.04
21.767,0.00,-0.01,0.00,0.01
21.778,-0.00,-0.00,-0.08,0.08
21.788,0.02,0.00,0.11,0.12
21.798,0.02,-0.04,0.11,0.12
21.808,0.01,-0.05,0.04,0.07
21.818,0.00,-0.05,-0.00,0.05
21.828,-0.01,-0.01,0.01,0.02
21.838,-0.05,0.03,-0.05,0.07
21.848,-0.07,0.08,-0.01,0.11
21.858,-0.04,0.08,0.11,0.14
21.868,-0.00,0.06,0.07,0.09
21.878,0.01,0.03,0.03,0.04
21.888,0.04,0.02,-0.02,0.05
21.898,0.00,0.00,-0.05,0.05
21.908,0.01,-0.02,-0.01,0.03
21.919,0.02,-0.05,-0.01,0.05
21.929,0.04,-0.03,0.01,0.05
21.938,0.04,-0.02,0.07,0.08
21.949,0.01,-0.03,0.06,0.07
21.959,-0.01,-0.01,0.04,0.04
21.969,-0.02,-0.02,0.02,0.04
21.979,-0.01,-0.03,0.01,0.04
21.989,0.01,-0.03,0.02,0.04
21.999,-0.01,-0.03,0.01,0.03
22.009,0.01,-0.02,-0.02,0.03
22.019,0.02,-0.01,-0.01,0.02
22.029,0.01,0.00,-0.03,0.03
22.039,0.01,0.01,-0.03,0.03
22.049,0.00,0.02,0.01,0.03
22.059,0.02,0.01,-0.01,0.02
22.069,0.02,0.05,0.02,0.06
22.080,0.00,0.06,0.07,0.10
22.090,0.01,0.04,-0.16,0.16
22.100,-0.00,-0.01,0.06,0.06
22.110,0.00,-0.01,0.04,0.04
22.120,0.00,-0.02,-0.11,0.11
22.130,0.01,0.02,0.03,0.04
22.140,0.00,0.03,0.03,0.04
22.150,0.01,0.03,-0.03,0.05
22.160,-0.00,0.02,-0.01,0.02
22.170,-0.01,0.02,0.01,0.02
22.180,-0.00,0.00,0.03,0.03
22.190,-0.01,-0.01,0.02,0.02
22.200,-0.01,-0.04,-0.05,0.07
22.210,0.01,-0.04,-0.03,0.05
22.220,-0.00,-0.02,0.02,0.03
22.231,-0.02,-0.03,0.00,0.04
22.241,-0.02,-0.02,0.05,0.05
22.251,0.01,-0.01,0.06,0.06
22.261,0.02,0.00,0.02,0.03
22.271,0.00,-0.01,0.02,0.02
22.281,0.00,-0.01,0.01,0.01
22.291,0.03,-0.03,-0.01,0.04
22.301,0.01,-0.01,-0.01,0.01
22.311,0.02,0.00,0.01,0.02
22.321,0.01,0.00,0.01,0.02
22.331,0.00,0.03,0.01,0.03
22.341,0.01,0.02,0.01,0.02
22.351,0.00,0.02,0.04,0.05
22.361,0.01,0.01,0.01,0.02
22.371,0.01,0.01,-0.00,0.01
22.382,-0.01,0.01,0.00,0.02
22.392,-0.00,-0.00,-0.01,0.01
22.402,-0.01,-0.00,0.00,0.01
22.412,-0.02,0.01,0.01,0.02
22.422,-0.02,-0.00,0.02,0.03
22.432,0.01,-0.00,0.01,0.02
22.442,-0.00,-0.00,-0.01,0.01
22.452,-0.01,-0.00,-0.01,0.02
22.462,-0.00,-0.00,-0.00,0.01
22.472,0.01,-0.00,0.03,0.03
22.482,-0.01,0.00,0.02,0.02
22.492,0.01,0.02,0.01,0.02
22.502,0.01,0.00,0.02,0.02
22.512,0.01,-0.00,0.00,0.01
22.523,-0.00,0.02,0.01,0.02
22.533,-0.02,0.03,0.00,0.04
22.543,-0.01,0.01,0.01,0.02
22.553,-0.00,0.01,0.03,0.03
22.563,0.00,0.00,0.03,0.03
22.573,-0.01,-0.01,-0.03,0.03
22.583,-0.00,-0.00,-0.07,0.07
22.593,0.01,-0.00,-0.03,0.03
22.603,0.02,0.00,0.02,0.03
22.613,0.03,0.01,0.03,0.04
22.623,0.00,0.00,0.00,0.01
22.633,-0.02,-0.01,-0.10,0.10
22.643,-0.00,-0.00,0.09,0.09
22.654,0.01,-0.03,0.12,0.12
22.663,0.01,-0.06,0.07,0.09
22.674,-0.00,-0.06,0.02,0.06
22.684,-0.03,-0.04,0.03,0.05
22.694,-0.03,0.01,-0.06,0.07
22.704,-0.04,0.07,-0.02,0.08
22.714,-0.05,0.09,0.09,0.14
22.724,0.01,0.06,0.06,0.09
22.734,0.03,0.04,0.01,0.05
22.744,0.00,0.04,-0.00,0.04
22.754,0.00,0.01,-0.05,0.05
22.764,-0.01,-0.00,-0.05,0.05
22.774,0.01,-0.02,-0.03,0.04
22.784,0.01,-0.01,0.01,0.02
22.794,0.02,-0.02,0.04,0.05
22.804,0.01,0.00,0.03,0.03
22.814,-0.00,-0.01,-0.00,0.02
22.825,-0.01,-0.04,-0.01,0.04
22.835,0.02,-0.03,0.02,0.04
22.845,0.01,-0.04,0.02,0.04
22.855,0.00,-0.02,0.01,0.02
22.865,0.00,-0.01,0.01,0.02
22.875,0.01,0.01,-0.03,0.03
22.885,0.00,0.02,-0.03,0.03
22.895,0.02,0.00,-0.02,0.03
22.905,0.01,0.02,-0.00,0.03
22.915,0.02,0.02,0.01,0.03
22.925,0.01,0.05,0.06,0.08
22.935,-0.01,0.06,0.05,0.08
22.946,-0.00,0.02,-0.18,0.19
22.955,0.01,0.01,0.03,0.03
22.966,-0.01,-0.01,-0.04,0.04
22.976,0.00,-0.02,-0.12,0.12
22.986,-0.01,0.02,0.02,0.03
22.996,-0.01,0.04,0.01,0.04
23.006,0.00,0.05,-0.05,0.07
23.016,0.00,0.04,-0.06,0.07
23.026,0.01,0.03,-0.02,0.04
23.036,-0.00,-0.01,0.05,0.05
23.046,-0.01,-0.02,0.07,0.07
23.056,-0.00,-0.04,-0.02,0.04
23.066,-0.00,-0.05,-0.03,0.06
23.076,-0.01,-0.03,0.02,0.04
23.086,-0.01,-0.01,0.02,0.02
23.096,0.00,0.01,0.05,0.05
23.107,0.03,0.01,0.10,0.10
23.117,0.03,-0.02,0.07,0.08
23.127,0.01,-0.03,0.04,0.05
23.137,-0.01,-0.05,0.02,0.05
23.147,-0.01,-0.02,0.00,0.03
23.157,-0.01,-0.02,-0.02,0.03
23.167,0.01,-0.01,0.04,0.04
23.177,0.02,0.00,0.04,0.04
23.187,0.02,0.01,-0.00,0.02
23.197,-0.01,0.02,-0.01,0.02
23.207,-0.01,0.02,0.01,0.03
23.217,-0.02,0.01,-0.00,0.02
23.227,-0.00,0.02,-0.02,0.03
23.237,-0.00,0.02,-0.02,0.03
23.248,-0.00,0.03,0.00,0.03
23.258,0.00,0.02,0.04,0.04
23.267,0.01,0.01,0.02,0.02
23.278,-0.00,-0.01,0.01,0.02
23.288,0.00,-0.01,-0.01,0.01
23.298,-0.00,0.01,0.02,0.02
23.308,-0.02,0.01,0.02,0.03
23.318,0.01,0.00,0.00,0.01
23.328,-0.01,-0.01,0.01,0.02
23.338,-0.02,-0.01,0.02,0.03
23.348,-0.00,-0.01,0.01,0.02
23.358,-0.01,-0.01,-0.03,0.03
23.368,-0.00,-0.00,-0.02,0.02
23.378,0.02,0.01,0.04,0.05
23.388,0.01,0.01,0.08,0.08
23.398,0.01,-0.01,0.04,0.04
23.409,0.00,-0.01,-0.01,0.01
23.419,0.02,-0.01,-0.05,0.05
23.429,0.02,-0.00,0.00,0.02
23.439,0.01,-0.01,0.02,0.02
23.449,-0.00,-0.01,0.00,0.01
23.459,-0.03,-0.00,-0.06,0.06
23.469,-0.03,0.00,-0.12,0.12
23.479,-0.00,0.01,0.09,0.09
23.489,-0.00,-0.01,0.14,0.14
23.499,-0.01,-0.04,0.07,0.08
23.509,-0.00,-0.06,0.03,0.07
23.519,-0.02,-0.04,0.01,0.04
23.529,-0.05,0.03,-0.08,0.10
23.539,-0.04,0.05,0.00,0.06
23.550,-0.03,0.06,0.09,0.11
23.560,0.00,0.04,0.06,0.07
23.570,0.02,0.04,0.01,0.05
23.580,0.02,0.04,-0.01,0.05
23.590,-0.01,0.03,-0.05,0.06
23.600,-0.03,0.01,-0.04,0.05
23.610,-0.00,-0.05,-0.05,0.07
23.620,0.00,-0.04,0.01,0.04
23.630,0.01,-0.01,0.07,0.07
23.640,-0.02,-0.01,0.02,0.03
23.650,-0.01,-0.00,-0.01,0.02
23.660,-0.01,-0.01,-0.03,0.04
23.670,0.01,-0.04,-0.02,0.04
23.680,-0.00,-0.04,-0.01,0.04
23.690,-0.00,-0.03,0.00,0.03
23.701,0.00,-0.02,0.00,0.02
23.711,0.03,0.01,-0.00,0.03
23.721,0.01,0.01,0.00,0.01
23.731,0.02,0.01,-0.00,0.02
23.741,0.01,0.02,0.03,0.04
23.751,0.03,0.01,0.01,0.03
23.761,0.03,0.04,0.11,0.12
23.771,0.01,0.06,-0.01,0.06
23.781,-0.01,0.01,-0.12,0.12
23.791,-0.03,-0.00,0.12,0.12
23.801,-0.02,-0.03,-0.05,0.06
23.811,-0.02,-0.02,-0.05,0.06
23.821,-0.01,0.02,0.05,0.06
23.831,-0.02,0.03,0.03,0.05
23.841,-0.00,0.03,0.00,0.03
23.851,0.01,0.02,-0.03,0.03
23.862,-0.01,0.01,-0.03,0.03
23.872,-0.02,-0.01,0.04,0.05
23.882,-0.02,-0.03,0.00,0.03
23.892,-0.02,-0.02,-0.05,0.06
23.902,-0.00,-0.03,-0.01,0.03
23.912,-0.03,-0.01,0.03,0.04
23.922,-0.03,-0.01,0.03,0.04
23.932,-0.01,0.01,0.08,0.08
23.942,0.03,-0.00,0.10,0.11
23.952,0.04,-0.01,0.03,0.05
23.962,0.04,-0.03,0.01,0.05
23.972,0.03,-0.03,0.02,0.05
23.982,0.00,-0.02,0.02,0.03
23.993,0.02,0.01,0.04,0.04
24.003,0.02,0.02,0.05,0.06
24.013,0.03,0.02,0.04,0.05
24.023,0.03,0.03,-0.03,0.05
24.033,0.04,0.05,-0.07,0.10
24.043,0.04,0.05,-0.10,0.11
24.053,0.01,0.05,-0.07,0.09
24.063,-0.00,0.04,-0.06,0.07
24.073,-0.03,0.03,-0.10,0.10
24.083,-0.02,0.03,-0.13,0.13
24.093,0.02,0.05,-0.01,0.05
24.103,-0.02,0.02,0.02,0.04
24.113,-0.06,0.03,-0.03,0.07
24.123,-0.06,0.01,-0.01,0.06
24.133,-0.06,0.00,0.05,0.08
24.144,-0.04,-0.00,0.07,0.08
24.154,-0.03,-0.00,0.05,0.06
24.164,-0.02,-0.01,0.00,0.02
24.174,-0.04,-0.01,0.01,0.04
24.184,-0.03,0.02,0.02,0.04
24.194,0.01,-0.01,-0.00,0.01
24.204,-0.02,-0.02,-0.01,0.03
24.214,-0.01,-0.03,-0.01,0.03
24.224,0.02,-0.01,0.00,0.03
24.234,0.03,-0.00,-0.04,0.05
24.244,0.05,0.02,-0.02,0.06
24.254,0.05,0.03,-0.04,0.07
24.264,0.04,0.02,-0.07,0.08
24.274,0.03,0.03,0.00,0.04
24.284,0.03,0.02,0.00,0.04
24.295,0.01,-0.01,0.01,0.02
24.305,-0.02,-0.04,-0.07,0.08
24.315,-0.01,-0.02,-0.02,0.03
24.325,0.03,-0.03,0.11,0.12
24.335,0.05,-0.04,0.11,0.13
24.345,0.04,-0.07,0.05,0.09
24.355,-0.01,-0.07,0.05,0.09
24.365,-0.04,-0.04,0.02,0.06
24.375,-0.05,0.02,-0.05,0.08
24.385,-0.06,0.07,0.01,0.09
24.395,-0.02,0.08,0.06,0.11
24.405,0.02,0.07,0.02,0.08
24.415,0.03,0.08,-0.06,0.10
24.425,0.02,0.07,-0.10,0.12
24.436,-0.01,0.03,-0.05,0.06
24.446,-0.00,-0.00,-0.02,0.02
24.456,0.01,-0.03,0.01,0.03
24.466,0.02,-0.03,0.03,0.05
24.476,0.02,-0.04,0.08,0.09
24.486,0.01,-0.05,0.06,0.07
24.496,-0.00,-0.05,0.03,0.06
24.506,-0.00,-0.06,0.00,0.06
24.516,0.01,-0.07,-0.00,0.07
24.526,0.02,-0.05,0.01,0.05
24.536,0.02,-0.03,0.02,0.04
24.546,0.02,-0.01,0.02,0.03
24.556,0.02,-0.01,-0.01,0.02
24.566,-0.00,0.01,-0.00,0.01
24.577,0.01,0.01,-0.02,0.02
24.587,0.01,0.02,-0.01,0.03
24.597,0.01,0.03,0.06,0.07
24.607,-0.00,0.05,0.10,0.11
24.617,0.01,0.02,-0.15,0.15
24.627,-0.01,0.02,0.10,0.10
24.637,-0.03,-0.00,0.11,0.11
24.647,-0.02,-0.03,-0.12,0.12
24.657,-0.01,0.00,0.02,0.02
24.667,0.01,0.03,0.04,0.05
24.677,0.01,0.03,-0.03,0.04
24.687,-0.01,0.05,-0.02,0.05
24.697,-0.03,0.04,-0.01,0.05
24.707,-0.03,0.02,0.01,0.04
24.717,-0.02,-0.00,0.00,0.02
24.728,-0.00,-0.02,-0.02,0.03
24.738,0.01,-0.04,-0.04,0.06
24.748,0.01,-0.04,-0.00,0.04
24.758,-0.01,-0.02,0.00,0.02
24.768,0.01,0.00,-0.01,0.02
24.778,0.03,0.02,-0.01,0.03
24.788,0.02,-0.00,0.02,0.03
24.798,0.04,-0.01,0.06,0.07
24.808,0.01,-0.02,0.06,0.06
24.818,-0.00,-0.02,0.02,0.03
24.828,0.02,-0.03,-0.04,0.05
24.838,0.01,-0.00,-0.01,0.01
24.848,-0.01,0.01,0.02,0.02
24.859,-0.00,0.01,-0.01,0.02
24.868,0.00,0.02,-0.01,0.03
24.879,-0.01,0.03,-0.01,0.03
24.889,-0.02,0.03,0.00,0.03
24.899,-0.02,0.01,0.02,0.03
24.909,-0.04,-0.00,-0.00,0.04
24.919,-0.01,0.01,-0.02,0.02
24.929,0.00,0.01,0.01,0.02
24.939,-0.00,0.00,0.04,0.04
24.949,0.02,-0.00,0.02,0.03
24.959,-0.00,-0.02,-0.01,0.02
24.969,-0.01,-0.01,-0.01,0.01
24.979,-0.02,0.00,-0.01,0.02
24.989,-0.01,-0.02,0.00,0.02
24.999,-0.01,-0.02,0.02,0.03
25.009,0.00,-0.01,0.00,0.01
25.020,0.00,0.01,-0.05,0.05
25.030,0.01,0.01,-0.02,0.02
25.040,0.02,0.02,-0.00,0.03
25.050,0.01,0.02,0.00,0.03
25.060,-0.01,0.01,0.03,0.03
25.070,-0.02,-0.00,-0.01,0.02
25.080,0.01,-0.01,0.02,0.03
25.090,0.02,-0.02,0.05,0.06
25.100,0.03,-0.05,-0.00,0.06
25.110,0.00,-0.04,-0.01,0.04
25.120,-0.04,-0.01,0.06,0.07
25.130,-0.05,0.02,0.03,0.06
25.140,-0.03,0.04,0.05,0.07
25.150,-0.02,0.06,0.07,0.09
25.161,0.02,0.06,0.08,0.10
25.171,0.04,0.02,0.05,0.07
25.181,0.04,0.01,-0.03,0.05
25.191,0.03,0.00,-0.05,0.06
25.201,0.02,-0.03,-0.05,0.06
25.211,0.03,-0.04,-0.05,0.07
25.221,0.01,-0.03,-0.01,0.03
25.231,-0.00,-0.03,0.02,0.03
25.241,-0.01,-0.02,0.03,0.04
25.251,-0.02,-0.00,0.04,0.05
25.261,-0.01,-0.02,-0.01,0.02
25.271,0.00,-0.02,-0.03,0.04
25.281,-0.01,-0.02,0.00,0.02
25.291,-0.02,-0.03,0.00,0.03
25.301,-0.01,-0.01,0.01,0.01
25.312,-0.00,-0.02,-0.01,0.02
25.321,0.02,0.01,-0.00,0.02
25.331,0.01,0.03,-0.05,0.05
25.342,0.01,0.04,-0.02,0.05
25.352,0.02,0.05,0.04,0.07
25.362,0.03,0.06,0.12,0.14
25.372,0.00,0.05,-0.12,0.13
25.382,-0.01,-0.01,0.01,0.01
25.392,-0.01,-0.01,0.24,0.24
25.402,0.01,-0.03,-0.07,0.07
25.412,0.01,-0.02,-0.17,0.17
25.422,0.00,-0.00,0.04,0.04
25.432,0.02,0.01,0.07,0.07
25.442,0.03,0.03,0.00,0.04
25.452,0.02,0.02,-0.02,0.03
25.462,0.00,0.03,0.01,0.03
25.473,-0.01,0.02,-0.00,0.02
25.483,-0.01,-0.01,-0.07,0.07
25.493,0.00,-0.05,-0.11,0.12
25.503,-0.02,-0.04,-0.01,0.04
25.513,-0.01,-0.01,0.08,0.08
25.523,-0.00,-0.02,0.07,0.07
25.533,0.01,-0.02,0.03,0.04
25.543,-0.00,0.00,0.00,0.00
25.553,0.00,0.01,-0.01,0.02
25.563,0.03,0.00,0.02,0.03
25.573,0.02,-0.01,0.05,0.05
25.583,0.02,-0.02,-0.00,0.03
25.593,0.01,0.00,-0.01,0.02
25.603,0.00,0.01,0.04,0.04
25.613,-0.01,0.02,0.02,0.03
25.624,-0.02,0.02,-0.01,0.03
25.634,0.01,0.03,-0.00,0.04
25.644,0.00,0.01,0.03,0.03
25.654,0.00,0.03,0.04,0.05
25.664,-0.03,0.01,0.01,0.03
25.674,-0.02,-0.01,-0.00,0.02
25.684,0.01,0.00,-0.00,0.01
25.694,0.01,-0.01,0.03,0.04
25.704,0.00,-0.02,0.01,0.02
25.714,-0.01,-0.04,-0.03,0.05
25.724,-0.01,-0.02,-0.05,0.06
25.734,-0.00,0.00,0.01,0.01
25.744,0.00,0.01,0.03,0.03
25.754,0.00,-0.01,0.01,0.02
25.765,-0.02,-0.01,-0.02,0.03
25.775,-0.04,-0.02,-0.02,0.04
25.785,0.00,0.01,0.05,0.05
25.795,0.03,0.01,0.13,0.13
25.805,0.03,-0.04,-0.03,0.05
25.815,0.01,-0.04,-0.05,0.07
25.825,-0.01,-0.02,0.00,0.02
25.835,-0.03,0.03,0.02,0.05
25.845,-0.04,0.06,0.05,0.09
25.855,-0.02,0.07,0.09,0.12
25.865,0.01,0.04,0.09,0.10
25.875,0.01,0.03,0.01,0.03
25.885,0.03,0.01,-0.05,0.06
25.895,0.02,-0.03,-0.04,0.05
25.905,0.03,-0.02,-0.05,0.07
25.916,0.02,-0.02,-0.05,0.06
25.926,0.01,-0.02,-0.01,0.03
25.936,-0.01,-0.02,0.03,0.04
25.946,-0.03,-0.03,0.03,0.05
25.956,-0.02,-0.03,-0.02,0.04
25.966,-0.01,-0.04,-0.02,0.04
25.976,-0.01,-0.02,0.00,0.02
25.986,-0.01,-0.02,0.01,0.02
25.996,-0.01,-0.02,0.03,0.04
26.006,-0.00,-0.01,0.02,0.02
26.016,-0.00,-0.00,-0.00,0.00
26.026,0.01,0.03,-0.01,0.03
26.036,0.01,0.03,-0.01,0.03
26.047,0.00,0.05,-0.00,0.05
26.056,-0.00,0.05,0.04,0.07
26.067,0.00,0.08,0.07,0.10
26.077,0.01,0.03,-0.17,0.17
26.087,-0.00,-0.00,0.10,0.10
26.097,0.01,-0.01,0.20,0.20
26.107,0.02,-0.04,-0.23,0.23
26.117,-0.01,-0.01,-0.12,0.12
26.127,-0.01,0.03,0.09,0.10
26.137,-0.00,0.02,0.06,0.06
26.147,-0.01,0.01,-0.00,0.01
26.157,-0.02,0.03,0.01,0.03
26.167,-0.01,0.01,0.03,0.03
26.177,-0.02,-0.02,0.00,0.03
26.187,-0.02,-0.05,-0.09,0.11
26.197,-0.01,-0.06,-0.13,0.14
26.207,-0.01,-0.03,0.01,0.04
26.218,-0.01,-0.01,0.12,0.12
26.228,0.03,0.01,0.10,0.11
26.238,0.03,0.01,0.06,0.07
26.248,0.01,0.02,-0.02,0.03
26.258,0.01,0.01,-0.09,0.09
26.268,0.02,0.01,-0.04,0.05
26.278,0.02,-0.00,0.01,0.02
26.288,0.03,-0.01,0.00,0.03
26.298,0.01,-0.01,-0.02,0.02
26.308,0.00,0.01,-0.00,0.01
26.318,-0.01,0.04,0.01,0.04
26.328,0.01,0.04,0.02,0.04
26.338,0.01,0.02,0.02,0.03
26.349,0.02,0.02,0.02,0.04
26.359,0.00,-0.01,0.00,0.01
26.369,-0.02,-0.02,-0.00,0.03
26.379,-0.04,-0.03,0.00,0.05
26.389,-0.01,-0.01,0.03,0.03
26.399,0.01,-0.00,0.04,0.04
26.409,0.01,-0.01,0.05,0.05
26.419,-0.01,0.01,0.00,0.01
26.429,-0.00,-0.01,-0.06,0.06
26.439,-0.02,0.00,-0.03,0.04
26.449,0.01,0.04,0.02,0.04
26.459,-0.00,0.01,0.00,0.01
26.469,-0.03,0.00,-0.07,0.08
26.479,-0.03,-0.01,-0.11,0.11
26.489,-0.01,0.01,0.06,0.06
26.499,0.00,0.00,0.17,0.17
26.510,0.01,-0.03,0.04,0.05
26.520,0.03,-0.05,-0.08,0.10
26.530,0.00,-0.03,-0.04,0.05
26.540,-0.03,0.03,-0.05,0.06
26.550,-0.05,0.06,0.04,0.09
26.560,-0.03,0.07,0.16,0.17
26.570,-0.01,0.06,0.16,0.17
26.580,0.02,0.02,0.02,0.04
26.590,0.02,-0.01,-0.12,0.12
26.600,0.02,-0.03,-0.10,0.10
26.610,0.02,-0.04,-0.08,0.09
26.620,0.02,-0.03,-0.01,0.04
26.630,0.02,-0.04,0.04,0.06
26.640,0.01,-0.02,0.05,0.05
26.651,-0.00,-0.00,0.03,0.03
26.661,-0.03,-0.02,-0.01,0.04
26.671,-0.01,-0.02,-0.03,0.03
26.681,-0.00,-0.03,-0.00,0.03
26.691,-0.01,-0.04,0.01,0.04
26.701,0.00,-0.01,-0.00,0.01
26.711,-0.02,-0.00,0.00,0.02
26.721,-0.01,0.01,-0.01,0.02
26.731,0.02,0.02,-0.02,0.04
26.741,0.01,0.03,-0.01,0.03
26.751,-0.00,0.03,0.00,0.03
26.761,-0.00,0.04,0.03,0.05
26.771,0.03,0.06,0.10,0.12
26.781,0.01,0.03,-0.09,0.10
26.792,-0.02,-0.01,0.03,0.04
26.802,-0.00,-0.01,0.11,0.11
26.812,0.00,-0.04,-0.21,0.21
26.822,-0.01,-0.01,-0.06,0.06
26.832,0.00,0.05,0.14,0.15
26.842,0.00,0.05,0.07,0.09
26.852,-0.02,0.03,0.00,0.03
26.862,-0.02,0.04,-0.01,0.05
26.872,-0.02,0.02,-0.01,0.03
26.882,0.01,0.00,-0.05,0.05
26.892,-0.02,-0.02,-0.06,0.06
26.902,-0.01,-0.05,-0.10,0.11
26.912,0.00,-0.02,-0.04,0.05
26.922,-0.01,-0.01,0.05,0.05
26.933,0.00,-0.00,0.07,0.07
26.943,0.00,0.01,0.05,0.05
26.953,0.02,-0.01,0.06,0.06
26.963,0.03,-0.01,0.03,0.04
26.973,0.03,-0.00,-0.01,0.03
26.983,0.02,-0.02,-0.02,0.03
26.993,0.01,-0.01,0.02,0.03
27.003,0.02,0.01,0.04,0.04
27.013,-0.01,0.01,0.00,0.01
27.023,-0.03,0.02,-0.00,0.03
27.033,-0.03,0.05,0.01,0.06
27.043,-0.01,0.04,0.03,0.05
27.053,-0.01,0.03,0.03,0.04
27.063,-0.03,-0.00,-0.01,0.03
27.073,-0.03,-0.01,-0.02,0.04
27.084,-0.02,-0.03,0.02,0.04
27.094,0.01,-0.03,0.01,0.03
27.104,0.02,-0.03,0.03,0.05
27.114,0.01,-0.00,0.02,0.02
27.124,-0.01,-0.00,-0.01,0.01
27.134,-0.03,0.00,0.01,0.03
27.144,-0.02,0.01,0.03,0.04
27.154,-0.01,0.00,0.04,0.04
27.164,-0.01,0.01,-0.02,0.02
27.174,0.02,0.01,-0.05,0.05
27.184,0.02,0.01,-0.01,0.02
27.194,0.01,0.03,0.01,0.04
27.204,-0.04,0.02,-0.05,0.07
27.214,-0.05,0.00,-0.15,0.16
27.224,-0.01,-0.00,-0.01,0.01
27.234,0.02,-0.01,0.17,0.17
27.245,0.01,-0.02,0.10,0.10
27.255,0.03,-0.06,-0.05,0.08
27.265,0.02,-0.07,-0.07,0.10
27.275,0.00,-0.01,-0.05,0.05
27.285,-0.07,0.05,0.05,0.10
27.295,-0.06,0.10,0.17,0.21
27.305,-0.01,0.10,0.17,0.19
27.315,0.03,0.05,0.03,0.07
27.325,0.03,0.01,-0.09,0.09
27.335,0.02,-0.01,-0.12,0.12
27.345,0.01,-0.02,-0.09,0.09
27.355,0.02,-0.03,-0.05,0.06
27.365,0.03,-0.04,0.01,0.05
27.376,0.02,-0.01,0.07,0.07
27.385,-0.01,-0.02,0.04,0.04
27.396,-0.00,-0.02,-0.00,0.02
27.406,0.00,-0.03,-0.01,0.03
27.416,-0.01,-0.04,-0.02,0.04
27.426,-0.02,-0.04,-0.02,0.05
27.436,-0.01,-0.03,0.02,0.03
27.446,-0.03,-0.00,0.01,0.03
27.456,-0.02,0.00,0.01,0.02
27.466,-0.00,0.01,0.02,0.03
27.476,0.00,0.03,0.01,0.03
27.486,-0.00,0.04,0.00,0.04
27.496,0.00,0.04,-0.02,0.04
27.506,-0.01,0.05,0.05,0.07
27.516,-0.02,0.04,-0.02,0.05
27.527,-0.00,-0.01,-0.02,0.02
27.537,0.01,-0.01,0.17,0.17
27.547,0.01,-0.03,-0.19,0.20
27.557,-0.01,-0.01,-0.15,0.16
27.567,-0.03,0.03,0.10,0.11
27.577,-0.02,0.04,0.07,0.09
27.587,-0.03,0.02,-0.00,0.04
27.597,-0.04,0.01,0.02,0.04
27.607,-0.03,0.01,0.00,0.03
27.617,0.00,-0.01,-0.02,0.03
27.627,-0.01,-0.03,-0.03,0.05
27.637,-0.00,-0.05,-0.11,0.12
27.647,-0.00,-0.02,-0.09,0.09
27.657,-0.03,-0.01,0.03,0.05
27.667,-0.03,0.02,0.07,0.08
27.678,0.00,0.02,0.06,0.06
27.688,0.03,0.01,0.04,0.05
27.698,0.00,0.00,-0.01,0.01
27.708,0.01,-0.01,-0.05,0.05
27.718,0.02,-0.00,-0.03,0.03
27.728,0.03,-0.00,-0.02,0.04
27.738,0.02,-0.00,-0.00,0.02
27.748,0.01,-0.00,0.01,0.01
27.758,0.01,0.01,0.00,0.02
27.768,-0.00,0.04,0.02,0.04
27.778,-0.03,0.04,0.03,0.06
27.788,-0.04,0.04,0.02,0.06
27.798,-0.02,0.01,0.01,0.02
27.808,-0.01,-0.00,-0.04,0.05
27.819,-0.02,-0.01,-0.04,0.05
27.829,-0.01,-0.01,0.00,0.02
27.839,-0.01,-0.02,0.01,0.03
27.849,-0.01,-0.01,0.02,0.02
27.859,-0.01,-0.00,0.01,0.01
27.869,-0.01,-0.01,0.01,0.02
27.879,-0.00,-0.02,0.02,0.03
27.889,0.01,-0.01,0.05,0.05
27.899,0.00,0.01,0.06,0.06
27.909,0.00,0.02,0.06,0.06
27.919,0.00,0.04,0.09,0.10
27.929,0.00,0.03,0.10,0.10
27.939,-0.02,0.00,0.01,0.02
27.949,-0.01,-0.01,-0.08,0.08
27.960,-0.02,-0.01,-0.15,0.15
27.970,0.01,0.01,-0.11,0.11
27.980,0.04,0.02,-0.01,0.05
27.990,0.03,-0.00,0.05,0.06
28.000,-0.03,-0.04,0.00,0.05
28.010,-0.03,-0.04,-0.14,0.15
28.020,0.02,-0.03,0.08,0.09
28.030,0.01,-0.01,0.17,0.17
28.040,-0.02,-0.05,0.01,0.05
28.050,0.02,-0.08,-0.10,0.13
28.060,0.01,-0.03,-0.09,0.09
28.070,-0.05,0.03,-0.01,0.06
28.080,-0.10,0.10,0.10,0.17
28.090,-0.06,0.13,0.16,0.22
28.100,-0.02,0.10,0.11,0.16
28.111,0.05,0.06,0.04,0.09
28.121,0.06,0.03,-0.03,0.08
28.131,0.03,-0.01,-0.10,0.10
28.141,0.02,-0.03,-0.11,0.11
28.151,0.01,-0.02,-0.04,0.05
28.161,0.00,-0.03,0.02,0.04
28.171,-0.02,-0.03,0.04,0.06
28.181,-0.02,-0.03,0.05,0.06
28.191,0.01,-0.03,0.01,0.04
28.201,0.01,-0.04,-0.01,0.04
28.211,-0.01,-0.07,-0.01,0.07
28.221,-0.02,-0.06,0.00,0.07
28.231,-0.03,-0.05,0.02,0.07
28.241,-0.02,-0.02,-0.00,0.03
28.251,-0.02,-0.02,-0.02,0.03
28.262,0.02,0.01,-0.00,0.02
28.272,0.01,0.02,-0.00,0.02
28.282,0.01,0.03,0.02,0.04
28.292,0.01,0.07,0.05,0.09
28.302,0.01,0.08,0.09,0.13
28.312,0.01,0.06,-0.08,0.10
28.322,-0.00,0.02,0.05,0.05
28.332,0.02,0.01,0.08,0.09
28.342,0.01,-0.02,-0.27,0.27
28.352,-0.02,0.02,-0.09,0.09
28.362,-0.01,0.05,0.13,0.14
28.372,-0.00,0.03,0.06,0.07
28.382,-0.02,0.03,0.01,0.03
28.392,-0.02,0.01,0.03,0.03
28.403,0.01,-0.01,-0.01,0.02
28.413,-0.03,-0.01,-0.04,0.05
28.423,-0.04,-0.04,-0.04,0.06
28.433,-0.00,-0.07,-0.08,0.11
28.443,-0.01,-0.07,-0.05,0.09
28.453,-0.00,-0.03,0.05,0.06
28.463,-0.02,-0.00,0.10,0.10
28.473,0.00,0.02,0.08,0.08
28.483,0.02,0.01,0.03,0.04
28.493,0.00,0.02,0.01,0.02
28.503,0.02,0.00,-0.02,0.03
28.513,0.04,-0.02,-0.02,0.05
28.523,0.02,-0.02,-0.01,0.03
28.533,0.02,0.01,-0.02,0.03
28.543,0.00,0.02,-0.02,0.03
28.554,-0.01,0.05,-0.02,0.06
28.564,-0.01,0.04,0.03,0.05
28.574,-0.01,0.04,0.02,0.04
28.584,0.01,0.03,0.00,0.04
28.594,0.00,0.01,0.01,0.02
28.604,-0.01,-0.00,-0.00,0.01
28.614,0.01,-0.01,-0.02,0.02
28.624,-0.01,-0.01,0.01,0.02
28.634,-0.01,-0.01,0.01,0.01
28.644,-0.00,-0.01,0.00,0.01
28.654,0.00,-0.01,0.03,0.03
28.664,0.01,-0.02,0.02,0.03
28.674,-0.02,-0.01,0.00,0.02
28.684,-0.02,-0.01,0.03,0.03
28.694,-0.01,-0.02,0.04,0.04
28.705,-0.03,-0.02,0.00,0.03
28.715,-0.01,0.00,-0.01,0.02
28.725,-0.01,0.01,0.03,0.04
28.735,-0.03,0.01,0.03,0.04
28.745,-0.01,0.00,-0.02,0.02
28.755,0.01,-0.01,-0.02,0.02
28.765,0.01,0.02,-0.02,0.02
28.775,0.01,0.03,0.02,0.04
28.785,0.02,0.03,-0.00,0.04
28.795,-0.03,0.02,0.01,0.04
28.805,-0.02,-0.02,-0.10,0.11
28.815,0.03,-0.04,-0.05,0.07
28.825,0.03,-0.01,0.14,0.14
28.835,-0.01,-0.03,0.09,0.10
28.845,-0.01,-0.04,-0.05,0.07
28.856,0.04,-0.04,-0.10,0.12
28.866,0.01,-0.00,-0.07,0.07
28.876,-0.05,0.06,0.10,0.13
28.886,-0.07,0.10,0.23,0.26
28.896,-0.04,0.07,0.18,0.20
28.906,0.02,0.02,0.03,0.04
28.916,0.02,-0.02,-0.13,0.13
28.926,0.04,-0.06,-0.18,0.19
28.936,0.02,-0.06,-0.12,0.14
28.946,0.01,-0.04,-0.04,0.06
28.956,0.00,-0.04,0.04,0.06
28.966,-0.00,-0.03,0.08,0.09
28.976,0.00,-0.01,0.07,0.07
28.986,-0.02,-0.01,0.01,0.02
28.996,-0.02,-0.03,-0.04,0.06
29.007,-0.01,-0.03,-0.02,0.04
29.017,-0.01,-0.01,-0.00,0.01
29.027,-0.01,-0.00,-0.01,0.02
29.037,-0.01,0.03,-0.01,0.03
29.047,0.01,0.04,0.01,0.04
29.057,0.02,0.04,-0.00,0.04
29.067,0.01,0.04,-0.03,0.05
29.077,-0.00,0.03,-0.03,0.04
29.087,-0.03,0.04,-0.01,0.05
29.097,-0.02,0.05,0.04,0.07
29.107,0.01,0.03,0.02,0.04
29.117,-0.00,-0.01,-0.09,0.09
29.128,-0.01,-0.04,0.16,0.16
29.137,0.02,-0.06,-0.09,0.11
29.148,-0.01,-0.06,-0.20,0.21
29.158,-0.02,0.02,0.09,0.09
29.168,-0.01,0.04,0.14,0.14
29.178,-0.01,0.03,0.02,0.04
29.188,-0.03,0.01,-0.00,0.03
29.198,-0.02,0.02,0.01,0.02
29.208,-0.01,0.01,-0.03,0.04
29.218,-0.02,-0.03,-0.06,0.07
29.228,-0.01,-0.03,-0.12,0.12
29.238,0.00,-0.02,-0.09,0.10
29.248,-0.01,0.01,0.01,0.01
29.258,-0.02,0.02,0.05,0.06
29.268,-0.00,0.04,0.04,0.05
29.279,0.03,0.01,0.04,0.05
29.288,0.04,0.02,0.02,0.05
29.299,0.03,0.00,0.01,0.03
29.309,0.00,-0.01,-0.00,0.02
29.319,0.00,-0.02,-0.02,0.03
29.329,0.00,-0.01,0.00,0.01
29.339,0.01,-0.02,0.01,0.02
29.349,-0.03,0.00,-0.01,0.03
29.359,-0.01,0.02,0.02,0.03
29.369,-0.02,0.03,0.03,0.05
29.379,-0.01,0.02,0.03,0.04
29.389,-0.02,0.01,-0.01,0.02
29.399,-0.02,-0.00,-0.03,0.03
29.409,0.00,-0.01,-0.02,0.02
29.420,-0.00,-0.02,-0.00,0.02
29.430,-0.01,-0.04,0.00,0.04
29.440,-0.01,-0.01,0.01,0.02
29.450,0.00,-0.01,-0.00,0.01
29.460,0.00,-0.00,0.03,0.03
29.470,-0.00,0.01,0.03,0.03
29.480,-0.00,0.02,0.02,0.03
29.490,-0.01,0.01,0.01,0.02
29.500,0.01,0.01,0.00,0.01
29.510,-0.00,-0.01,-0.01,0.01
29.520,-0.00,-0.01,0.01,0.02
29.530,-0.01,0.02,-0.00,0.02
29.540,-0.00,0.01,0.01,0.02
29.550,0.02,-0.00,-0.00,0.02
29.560,0.01,-0.00,-0.01,0.02
29.570,0.00,0.01,0.02,0.02
29.580,-0.01,-0.01,-0.01,0.02
29.591,0.00,0.00,-0.02,0.02
29.601,0.02,0.01,0.02,0.03
29.611,-0.01,0.00,0.06,0.06
29.621,-0.04,0.00,-0.01,0.04
29.631,-0.02,-0.02,-0.12,0.13
29.641,0.00,0.01,0.07,0.07
29.651,0.01,-0.00,0.10,0.10
29.661,-0.01,-0.04,-0.03,0.05
29.671,0.03,-0.04,-0.08,0.10
29.681,0.03,-0.02,-0.09,0.10
29.691,-0.04,0.03,-0.01,0.05
29.701,-0.07,0.09,0.15,0.19
29.711,-0.06,0.07,0.20,0.22
29.721,-0.00,0.06,0.12,0.13
29.731,0.03,0.01,-0.04,0.05
29.742,0.02,-0.04,-0.14,0.15
29.752,0.03,-0.06,-0.16,0.17
29.762,0.01,-0.03,-0.08,0.09
29.772,0.01,-0.02,-0.01,0.03
29.782,0.01,-0.00,0.06,0.06
29.792,0.01,0.00,0.11,0.11
29.802,-0.01,0.01,0.08,0.08
29.812,-0.02,-0.01,-0.01,0.02
29.822,-0.01,-0.04,-0.04,0.06
29.832,-0.00,-0.04,-0.03,0.05
29.842,-0.01,-0.03,0.01,0.03
29.852,-0.00,0.00,0.02,0.02
29.862,-0.00,0.00,0.01,0.01
29.872,-0.02,0.02,0.02,0.03
29.883,0.00,0.02,-0.00,0.02
29.893,-0.01,0.02,-0.02,0.03
29.903,-0.00,0.02,-0.02,0.02
29.913,0.01,0.04,0.03,0.05
29.923,0.03,0.04,0.09,0.10
29.933,-0.00,0.02,-0.06,0.07
29.943,-0.01,-0.02,0.03,0.03
29.953,-0.01,-0.02,0.15,0.16
29.963,0.00,-0.05,-0.19,0.19
29.973,-0.02,-0.02,-0.10,0.11
29.983,0.01,0.02,0.14,0.14
29.994,0.00,0.04,0.09,0.09
30.003,-0.01,0.03,0.03,0.04
30.013,-0.01,0.03,0.01,0.03
30.024,-0.04,0.04,-0.01,0.05
30.033,-0.01,0.01,-0.02,0.02
30.044,-0.01,-0.02,-0.05,0.05
30.054,0.00,-0.04,-0.10,0.10
30.064,0.01,-0.04,-0.06,0.08
30.074,0.02,-0.02,0.03,0.04
30.084,-0.00,0.01,0.08,0.08
30.094,-0.01,0.01,0.09,0.09
30.104,0.02,-0.00,0.05,0.05
30.114,0.02,-0.01,-0.00,0.02
30.124,0.03,-0.01,-0.04,0.05
30.134,0.02,-0.04,-0.04,0.06
30.144,0.01,-0.02,0.01,0.03
30.154,-0.00,-0.02,0.02,0.03
30.164,-0.00,-0.01,-0.01,0.01
30.175,0.00,0.01,-0.01,0.01
30.185,0.00,0.03,-0.02,0.04
30.195,-0.01,0.04,-0.02,0.04
30.205,-0.01,0.04,-0.00,0.04
30.215,-0.02,0.03,0.01,0.03
30.225,-0.01,0.01,-0.00,0.02
30.235,-0.00,0.01,-0.02,0.02
30.245,0.00,-0.01,-0.03,0.03
30.255,-0.00,-0.02,-0.01,0.03
30.265,-0.00,-0.01,0.01,0.01
30.275,0.01,0.00,-0.01,0.01
30.285,-0.00,0.01,-0.00,0.01
30.295,-0.01,-0.00,0.02,0.02
30.305,-0.01,-0.01,-0.01,0.01
30.315,-0.01,-0.02,-0.02,0.03
30.326,-0.00,-0.02,-0.01,0.02
30.336,-0.00,0.01,0.01,0.02
30.346,-0.02,-0.01,0.04,0.04
30.356,0.00,-0.01,0.01,0.02
30.366,0.01,0.01,-0.02,0.02
30.376,-0.01,0.02,0.04,0.04
30.386,-0.00,0.02,0.06,0.06
30.396,-0.00,0.01,0.03,0.03
30.406,0.01,-0.03,-0.02,0.03
30.416,0.01,-0.01,-0.06,0.06
30.426,0.01,0.00,-0.01,0.01
30.436,0.02,0.02,0.01,0.03
30.446,-0.01,-0.00,0.02,0.02
30.457,-0.03,-0.00,-0.14,0.15
30.467,0.00,0.01,-0.06,0.06
30.477,0.03,0.02,0.24,0.24
30.487,0.04,-0.03,0.14,0.15
30.497,0.06,-0.06,-0.05,0.10
30.507,0.06,-0.03,-0.09,0.12
30.517,0.04,0.05,-0.10,0.11
30.527,0.02,0.08,0.00,0.08
30.537,0.04,0.08,0.17,0.19
30.547,0.09,0.06,0.22,0.24
30.557,0.08,0.01,0.14,0.16
30.567,0.03,-0.03,-0.04,0.07
30.577,-0.05,-0.06,-0.17,0.18
30.587,-0.13,-0.07,-0.20,0.25
30.597,-0.14,-0.08,-0.14,0.21
30.607,-0.08,-0.10,-0.05,0.14
30.618,-0.04,-0.07,0.02,0.08
30.628,-0.03,-0.03,0.12,0.13
30.638,-0.07,-0.03,0.12,0.14
30.648,-0.10,-0.01,0.03,0.11
30.658,-0.08,-0.04,-0.06,0.10
30.668,-0.05,-0.06,-0.01,0.08
30.678,0.02,-0.07,0.00,0.07
30.688,0.03,-0.05,-0.01,0.06
30.698,0.01,-0.01,0.01,0.02
30.708,-0.05,-0.01,-0.02,0.05
30.718,-0.10,0.00,-0.06,0.12
30.728,-0.11,0.00,-0.03,0.11
30.738,-0.09,0.02,0.00,0.09
30.748,-0.04,0.03,0.07,0.09
30.759,0.02,0.07,0.09,0.12
30.769,0.07,0.05,-0.07,0.11
30.779,0.07,0.03,0.07,0.10
30.789,0.05,0.01,-0.02,0.05
30.799,0.07,-0.02,-0.13,0.15
30.809,0.09,0.02,0.01,0.09
30.819,0.13,0.05,0.10,0.17
30.829,0.18,0.07,0.07,0.20
30.839,0.20,0.07,0.05,0.22
30.849,0.15,0.05,0.03,0.17
30.859,0.04,-0.00,0.01,0.04
30.869,-0.12,-0.07,-0.06,0.15
30.879,-0.25,-0.11,-0.13,0.30
30.889,-0.29,-0.14,-0.12,0.35
30.899,-0.22,-0.13,-0.06,0.26
30.910,-0.13,-0.10,0.00,0.17
30.920,-0.06,-0.06,0.10,0.13
30.930,-0.03,-0.03,0.11,0.12
30.940,-0.05,-0.00,0.03,0.06
30.950,-0.06,0.03,-0.01,0.07
30.960,-0.04,0.05,-0.01,0.06
30.970,-0.00,0.02,0.06,0.06
30.980,0.03,-0.02,0.08,0.09
30.990,0.01,-0.03,0.07,0.08
31.000,-0.01,-0.04,-0.00,0.04
31.010,0.02,-0.05,-0.05,0.07
31.020,0.08,-0.06,-0.05,0.11
31.030,0.12,-0.04,0.00,0.13
31.040,0.13,-0.03,0.02,0.13
31.050,0.11,0.02,0.01,0.11
31.061,0.09,0.04,-0.02,0.10
31.071,0.06,0.07,-0.04,0.10
31.081,0.08,0.08,-0.01,0.11
31.091,0.10,0.10,-0.01,0.14
31.101,0.08,0.09,-0.02,0.12
31.111,0.07,0.08,0.01,0.10
31.121,0.03,0.06,0.02,0.07
31.131,-0.02,0.06,0.02,0.06
31.141,-0.09,0.06,-0.00,0.11
31.151,-0.12,0.05,-0.03,0.13
31.161,-0.08,0.06,-0.01,0.10
31.171,-0.02,0.06,0.01,0.06
31.181,0.02,0.02,0.03,0.04
31.191,0.02,-0.00,0.05,0.05
31.201,0.00,-0.03,0.07,0.07
31.212,-0.01,-0.08,0.05,0.10
31.222,-0.04,-0.06,0.07,0.11
31.232,-0.02,-0.05,0.05,0.07
31.242,0.01,-0.06,0.02,0.07
31.252,0.03,-0.02,0.01,0.04
31.262,0.05,0.01,-0.02,0.05
31.272,0.05,0.03,-0.06,0.08
31.282,0.02,-0.01,-0.03,0.04
31.292,-0.04,-0.09,0.04,0.10
31.302,-0.00,-0.09,0.06,0.11
31.312,-0.00,0.05,-0.09,0.10
31.322,-0.10,0.22,-0.26,0.35
31.332,-0.09,0.25,-0.23,0.35
31.342,0.11,0.15,0.06,0.20
31.352,0.27,-0.01,0.19,0.33
31.363,0.33,-0.12,0.24,0.42
31.373,0.31,-0.15,0.06,0.35
31.383,0.22,-0.13,-0.09,0.28
31.393,0.08,-0.03,-0.13,0.16
31.403,-0.05,0.09,-0.07,0.13
31.413,-0.17,0.15,0.05,0.23
31.423,-0.26,0.19,0.10,0.33
31.433,-0.29,0.12,0.08,0.32
31.443,-0.23,-0.00,0.02,0.23
31.453,-0.12,-0.10,-0.03,0.16
31.463,-0.04,-0.17,-0.04,0.18
31.473,-0.02,-0.18,-0.03,0.19
31.483,-0.10,-0.19,0.11,0.24
31.493,-0.27,-0.27,-0.68,0.78
31.504,0.02,-0.53,-2.03,2.10
31.514,0.13,-0.55,-1.18,1.31
31.524,0.08,-0.20,0.42,0.47
31.534,-0.05,0.23,1.76,1.77
31.544,-0.25,0.50,2.17,2.24
31.554,-0.39,0.53,1.49,1.63
31.564,-0.23,0.38,0.20,0.49
31.574,-0.03,0.11,-0.65,0.66
31.584,0.11,-0.12,-0.77,0.79
31.594,0.23,-0.18,-0.51,0.59
31.604,0.27,-0.12,-0.28,0.41
31.614,0.16,-0.03,-0.16,0.23
31.625,-0.02,0.04,0.05,0.07
31.634,-0.10,0.07,0.02,0.12
31.645,-0.09,0.07,0.04,0.12
31.655,-0.07,0.07,0.20,0.22
31.665,-0.04,0.03,0.04,0.06
31.675,-0.02,-0.03,-0.07,0.08
31.685,0.04,-0.06,-0.01,0.07
31.695,0.14,-0.12,0.02,0.19
31.705,0.18,-0.12,0.07,0.23
31.715,0.11,0.00,0.09,0.15
31.725,-0.01,0.14,0.06,0.15
31.735,-0.09,0.15,-0.04,0.18
31.745,-0.07,0.09,-0.11,0.16
31.755,0.05,-0.06,-0.17,0.19
31.765,0.18,-0.12,-0.13,0.25
31.775,0.21,-0.10,-0.01,0.23
31.785,0.07,-0.10,-0.06,0.14
31.796,-0.03,-0.10,-0.00,0.10
31.806,0.08,-0.10,0.03,0.14
31.816,0.28,-0.12,-0.02,0.30
31.826,0.43,-0.21,-0.05,0.48
31.836,0.41,-0.28,0.02,0.50
31.846,0.19,-0.18,0.10,0.29
31.856,-0.21,-0.06,0.07,0.23
31.866,-0.48,0.03,0.06,0.48
31.876,-0.61,-0.01,0.17,0.63
31.886,-0.65,-0.02,0.16,0.67
31.896,-0.69,0.02,-0.07,0.69
31.906,-0.42,-0.05,-0.20,0.47
31.916,-0.39,0.02,-0.24,0.46
31.927,-0.64,0.41,-0.06,0.76
31.937,-0.55,0.56,0.22,0.81
31.947,-0.20,0.42,0.24,0.52
31.957,0.15,0.35,0.12,0.40
31.967,0.30,0.33,0.01,0.44
31.977,0.20,0.29,-0.07,0.36
31.987,0.11,0.16,-0.07,0.20
31.997,-0.10,0.02,-0.05,0.11
32.007,-0.28,-0.05,-0.02,0.29
32.017,-0.23,0.03,-0.17,0.29
32.027,-0.23,0.03,-0.30,0.38
32.037,-0.02,-0.13,-0.11,0.17
32.047,0.54,-0.22,-0.05,0.58
32.057,0.87,-0.13,-0.04,0.88
32.067,0.99,-0.07,-0.03,0.99
32.078,0.57,-0.29,0.01,0.64
32.087,-0.08,-0.49,-0.11,0.51
32.098,-0.63,-0.45,-0.24,0.81
32.108,-0.88,-0.42,-0.13,0.99
32.118,-0.85,-0.52,-0.04,1.00
32.128,-0.73,-0.17,-0.04,0.75
32.138,-0.47,-0.13,0.03,0.48
32.148,-0.88,-0.57,0.15,1.06
32.158,-0.38,-0.33,0.18,0.54
32.168,0.10,-0.23,0.16,0.30
32.178,0.46,-0.00,-0.01,0.46
32.188,0.44,0.18,-0.22,0.52
32.198,0.36,0.18,-0.38,0.55
32.208,-0.07,0.12,-0.31,0.34
32.218,-0.76,0.10,-0.28,0.82
32.229,-1.17,-0.06,-0.34,1.22
32.239,-1.20,-0.28,-0.37,1.28
32.249,-0.98,-0.37,-0.47,1.14
32.259,-0.50,-0.29,-0.46,0.73
32.269,-0.04,-0.22,-0.43,0.49
32.279,0.35,-0.15,-0.48,0.62
32.289,0.68,-0.09,-0.48,0.84
32.299,0.97,-0.08,-0.60,1.14
32.309,0.92,-0.06,-0.93,1.31
32.319,0.70,-0.01,-1.46,1.62
32.329,0.63,0.08,-1.94,2.04
32.339,0.38,-0.08,-2.23,2.26
32.349,0.23,-0.11,-2.45,2.47
32.359,0.40,-0.10,-2.53,2.56
32.370,0.47,-0.25,-2.34,2.40
32.380,0.45,-0.27,-1.85,1.93
32.390,0.38,-0.21,-1.30,1.37
32.400,0.16,-0.25,-1.05,1.09
32.410,0.08,-0.25,-0.95,0.99
32.420,0.14,-0.14,-0.95,0.97
32.430,0.54,-0.11,-1.17,1.30
32.440,1.10,-0.07,-1.76,2.08
32.450,1.15,-0.09,-2.44,2.69
32.460,0.61,-0.30,-3.15,3.22
32.470,0.03,-0.36,-3.47,3.49
32.480,0.01,-0.31,-3.46,3.47
32.490,0.25,-0.48,-3.65,3.69
32.500,0.72,-0.15,-3.96,4.03
32.510,0.98,-0.43,-4.61,4.73
32.521,0.03,-1.41,-5.00,5.19
32.531,-0.84,-1.95,-4.98,5.41
32.541,-1.04,-2.41,-4.74,5.42
32.551,-1.22,-2.91,-4.29,5.33
32.561,-0.85,-2.75,-3.94,4.88
32.571,-0.46,-3.20,-3.72,4.93
32.581,-0.75,-3.94,-3.31,5.20
32.591,-0.94,-4.13,-2.97,5.17
32.601,-0.92,-4.06,-2.94,5.10
32.611,-0.45,-4.12,-2.99,5.11
32.621,-0.42,-4.57,-2.91,5.43
32.631,-0.67,-4.84,-2.68,5.57
32.641,-0.85,-5.19,-2.13,5.67
32.651,-1.08,-5.23,-0.84,5.41
32.661,-0.94,-4.67,0.35,4.78
32.671,-0.01,-3.97,0.55,4.01
32.682,0.49,-3.49,0.55,3.57
32.692,0.38,-3.70,0.14,3.73
32.702,-0.42,-4.29,0.01,4.31
32.712,-1.32,-4.03,0.53,4.27
32.722,-1.66,-3.67,1.10,4.17
32.732,-1.81,-3.43,1.59,4.19
32.742,-2.18,-3.24,1.70,4.25
32.752,-2.32,-3.14,1.71,4.26
32.762,-1.97,-2.78,1.62,3.77
32.772,-1.30,-2.28,1.00,2.81
32.782,-0.90,-1.89,0.19,2.10
32.792,-0.90,-1.69,-0.21,1.92
32.802,-0.98,-1.54,0.14,1.82
32.813,-1.01,-1.31,0.83,1.85
32.823,-1.17,-1.11,1.15,1.97
32.833,-1.33,-1.02,1.18,2.05
32.843,-1.34,-0.73,1.10,1.89
32.853,-0.85,-0.39,0.87,1.28
32.863,-0.37,-0.05,0.68,0.78
32.873,-0.45,0.40,0.51,0.78
32.883,-0.76,0.60,0.16,0.98
32.893,-1.40,0.39,-0.13,1.46
32.903,-2.04,0.25,-0.24,2.07
32.913,-2.23,0.33,-0.55,2.32
32.923,-2.12,0.53,-1.12,2.45
32.933,-1.79,0.77,-1.74,2.61
32.943,-1.41,0.79,-2.28,2.80
32.954,-1.15,0.72,-2.87,3.18
32.964,-1.16,0.55,-3.22,3.47
32.974,-1.75,0.27,-3.30,3.74
32.984,-2.39,-0.04,-3.39,4.15
32.994,-2.68,-0.27,-3.50,4.42
33.004,-2.36,-0.46,-3.35,4.12
33.014,-1.52,-0.58,-3.25,3.63
33.024,-1.11,-0.58,-3.07,3.32
33.034,-0.98,-0.61,-2.89,3.11
33.044,-0.74,-0.69,-2.97,3.14
33.054,-0.65,-0.73,-2.97,3.13
33.064,-0.45,-0.78,-2.77,2.92
33.074,-0.22,-0.84,-2.38,2.53
33.084,0.01,-0.90,-1.75,1.97
33.094,-0.03,-0.94,-0.95,1.34
33.105,-0.07,-1.02,-0.18,1.04
33.115,-0.04,-1.08,0.46,1.17
33.125,0.47,-1.16,0.55,1.37
33.135,1.35,-1.11,0.23,1.76
33.145,2.29,-0.77,0.25,2.43
33.155,2.73,-0.40,0.57,2.82
33.165,2.64,-0.32,0.82,2.79
33.175,2.13,-0.29,1.17,2.45
33.185,1.68,-0.30,1.39,2.20
33.195,1.33,-0.63,1.16,1.87
33.205,0.94,-0.94,0.72,1.51
33.215,0.67,-0.94,0.55,1.28
33.225,0.29,-0.78,0.78,1.14
33.235,0.36,-0.69,1.52,1.71
33.245,0.55,-0.86,2.70,2.89
33.255,0.37,-1.09,4.08,4.24
33.266,0.27,-1.47,5.21,5.42
33.276,0.11,-1.93,5.56,5.88
33.286,-0.39,-2.16,5.06,5.52
33.296,-1.37,-2.04,3.91,4.62
33.306,-2.05,-1.95,2.52,3.79
33.316,-2.28,-1.71,1.29,3.13
33.326,-1.71,-1.30,0.81,2.29
33.336,-0.93,-1.04,0.74,1.58
33.346,-0.95,-0.88,0.60,1.42
33.356,-1.34,-0.83,0.20,1.59
33.366,-1.90,-0.83,-0.59,2.16
33.376,-2.47,-0.90,-1.12,2.85
33.386,-2.68,-0.87,-1.15,3.05
33.396,-2.58,-0.84,-0.97,2.88
33.406,-2.58,-0.72,-0.70,2.77
33.417,-2.59,-0.60,-0.36,2.69
33.427,-2.43,-0.69,0.06,2.52
33.437,-2.09,-0.92,0.43,2.32
33.447,-1.66,-1.15,0.54,2.10
33.457,-1.38,-1.24,0.39,1.90
33.467,-1.03,-1.20,0.23,1.60
33.477,-1.10,-1.08,0.04,1.54
33.487,-1.37,-1.15,-0.18,1.80
33.497,-1.62,-1.45,-0.25,2.19
33.507,-1.59,-1.60,-0.20,2.27
33.517,-1.23,-1.44,-0.44,1.95
33.527,-0.86,-1.12,-0.69,1.57
33.537,-0.53,-0.92,-0.82,1.34
33.547,-0.66,-0.66,-1.04,1.39
33.558,-0.89,-0.49,-1.14,1.53
33.568,-0.55,-0.65,-0.85,1.21
33.578,-0.22,-0.99,-0.46,1.11
33.588,-0.35,-1.11,-0.22,1.19
33.598,-0.66,-1.13,-0.32,1.35
33.608,-0.79,-0.98,-0.41,1.33
33.618,-0.57,-0.76,-0.18,0.96
33.628,-0.21,-0.59,0.45,0.77
33.638,0.19,-0.59,1.12,1.28
33.648,0.49,-0.58,1.80,1.95
33.658,0.71,-0.66,2.15,2.36
33.668,0.66,-0.70,2.12,2.33
33.678,0.56,-0.78,1.73,1.98
33.688,0.44,-0.82,1.13,1.47
33.699,0.47,-0.61,0.65,1.01
33.709,0.72,-0.35,0.45,0.92
33.719,1.24,-0.16,0.70,1.44
33.729,1.99,0.05,1.21,2.33
33.739,2.57,0.20,1.40,2.94
33.749,2.60,0.23,1.18,2.86
33.759,2.21,0.27,0.79,2.36
33.769,1.83,0.25,0.41,1.89
33.779,1.60,0.17,0.17,1.62
33.789,1.21,0.07,0.22,1.23
33.799,0.69,0.06,0.41,0.80
33.809,0.31,0.02,0.62,0.69
33.819,0.39,-0.06,0.65,0.76
33.829,0.58,-0.08,0.65,0.88
33.839,0.82,0.06,0.78,1.14
33.850,1.21,0.12,0.90,1.52
33.860,1.47,0.12,0.96,1.75
33.870,1.37,0.08,0.59,1.49
33.880,0.96,0.07,0.31,1.01
33.890,0.62,0.04,0.07,0.63
33.900,0.43,0.10,-0.09,0.45
33.910,0.63,0.23,-0.05,0.67
33.920,1.13,0.37,0.14,1.19
33.930,1.47,0.44,0.23,1.56
33.940,1.61,0.46,0.22,1.69
33.950,2.49,0.69,0.83,2.71
33.960,3.68,1.56,1.49,4.26
33.970,2.56,1.49,1.09,3.16
33.981,2.00,1.12,0.91,2.47
33.991,1.77,0.80,0.23,1.96
34.001,1.14,0.78,-0.35,1.42
34.011,0.48,0.67,-0.77,1.13
34.021,0.39,0.53,-1.09,1.27
34.031,0.42,0.17,-1.09,1.18
34.041,0.41,0.13,-0.27,0.50
34.051,0.86,0.29,-0.18,0.93
34.061,0.79,0.24,-0.27,0.87
34.071,0.95,-0.15,-0.13,0.97
34.081,1.22,-0.33,-0.23,1.29
34.091,1.20,-0.16,-0.54,1.33
34.101,1.07,-0.20,-0.68,1.28
34.112,1.03,-0.48,-0.41,1.21
34.121,0.87,-0.60,0.11,1.06
34.132,0.36,-0.75,0.17,0.85
34.142,0.27,-0.85,-0.14,0.90
34.152,0.45,-0.72,-0.71,1.11
34.162,0.75,-0.39,-0.94,1.26
34.172,1.66,0.12,-0.21,1.68
34.182,2.41,0.52,-0.44,2.50
34.192,1.77,0.78,-0.03,1.94
34.202,1.12,0.34,0.15,1.18
34.212,0.79,-0.14,0.29,0.85
34.222,0.59,-0.23,0.34,0.72
34.232,0.58,-0.19,0.33,0.70
34.242,0.59,-0.27,0.31,0.72
34.252,0.63,-0.35,0.21,0.75
34.262,0.73,-0.39,0.09,0.83
34.272,0.80,-0.36,0.05,0.87
34.283,0.86,-0.30,0.02,0.91
34.293,0.81,-0.29,-0.12,0.87
34.303,0.77,-0.27,-0.35,0.89
34.313,0.73,-0.21,-0.55,0.93
34.323,0.66,-0.18,-0.71,0.99
34.333,0.55,-0.14,-0.63,0.84
34.343,0.66,-0.24,-0.38,0.80
34.353,0.73,-0.20,-0.15,0.77
34.363,0.37,0.18,0.03,0.41
34.373,0.24,0.29,-0.00,0.38
34.383,0.47,0.18,-0.02,0.50
34.393,0.42,0.04,-0.11,0.44
34.403,0.13,0.06,-0.18,0.24
34.413,0.05,0.16,-0.21,0.27
34.423,0.15,0.21,-0.24,0.36
34.434,0.17,0.19,-0.28,0.37
34.444,0.14,0.20,-0.25,0.35
34.454,0.17,0.22,-0.18,0.34
34.464,0.22,0.21,-0.13,0.33
34.474,0.18,0.13,-0.02,0.22
34.484,0.14,-0.01,0.03,0.15
34.494,0.28,-0.16,0.01,0.32
34.504,0.26,-0.14,-0.08,0.31
34.514,0.07,0.02,-0.20,0.22
34.524,0.15,0.08,-0.41,0.44
34.534,0.39,0.02,-0.54,0.67
34.544,0.41,0.02,-0.59,0.72
34.554,0.26,0.12,-0.52,0.60
34.564,0.23,0.18,-0.32,0.43
34.575,0.18,0.20,-0.12,0.29
34.585,0.11,0.19,-0.06,0.22
34.595,0.07,0.16,-0.12,0.21
34.605,0.08,0.11,-0.18,0.22
34.615,0.10,0.12,-0.14,0.21
34.625,0.13,0.19,-0.08,0.24
34.635,0.14,0.19,-0.04,0.24
34.645,0.14,0.15,-0.03,0.21
34.655,0.10,0.13,0.07,0.18
34.665,0.05,0.11,0.13,0.18
34.675,0.02,0.08,0.14,0.16
34.685,0.08,0.07,0.16,0.19
34.695,0.11,0.12,0.10,0.19
34.706,0.07,0.13,-0.02,0.15
34.715,0.11,0.16,-0.12,0.23
34.726,0.12,0.18,-0.13,0.25
34.736,0.06,0.16,-0.10,0.19
34.746,0.04,0.14,-0.01,0.14
34.756,0.04,0.06,0.04,0.09
34.766,0.02,0.02,0.04,0.05
34.776,0.03,0.07,-0.04,0.09
34.786,0.11,0.10,-0.07,0.17
34.796,0.14,0.13,-0.14,0.23
34.806,0.10,0.12,-0.19,0.24
34.816,0.08,0.12,-0.17,0.22
34.826,0.04,0.06,-0.20,0.21
34.836,0.05,0.06,-0.16,0.18
34.846,0.07,0.06,-0.11,0.14
34.856,0.11,0.09,-0.10,0.17
34.867,0.15,0.09,-0.11,0.21
34.877,0.14,0.10,-0.16,0.23
34.887,0.15,0.11,-0.19,0.27
34.897,0.18,0.12,-0.24,0.32
34.907,0.18,0.10,-0.25,0.33
34.917,0.19,0.10,-0.23,0.32
34.927,0.17,0.04,-0.16,0.24
34.937,0.14,0.01,-0.11,0.18
34.947,0.15,0.01,-0.04,0.15
34.957,0.15,0.00,0.02,0.15
34.967,0.15,-0.00,0.06,0.16
34.977,0.15,-0.02,0.06,0.17
34.987,0.22,-0.02,-0.05,0.23
34.997,0.19,-0.02,-0.16,0.25
35.007,0.13,-0.05,-0.22,0.26
35.018,0.13,-0.06,-0.20,0.25
35.028,0.11,-0.04,-0.15,0.19
35.038,0.16,-0.04,-0.03,0.17
35.048,0.13,-0.11,-0.07,0.19
35.058,0.00,0.06,-0.10,0.11
35.068,0.04,0.31,0.00,0.31
35.078,0.06,0.26,0.11,0.29
35.088,0.06,0.09,0.04,0.12
35.098,0.05,0.08,0.06,0.11
35.108,0.05,0.04,0.03,0.07
35.118,0.05,0.05,-0.08,0.10
35.128,0.02,0.00,-0.12,0.12
35.138,0.00,-0.06,-0.12,0.13
35.148,0.00,0.05,-0.03,0.05
35.159,-0.04,0.11,0.05,0.13
