time,ax,ay,az,atotal
0.000,0.86,0.03,1.20,1.47
0.010,0.46,0.71,0.76,1.14
0.020,-0.13,0.89,0.19,0.92
0.030,-0.47,0.69,-0.42,0.93
0.040,-0.89,0.51,-0.44,1.12
0.050,-1.09,0.51,0.49,1.30
0.060,-0.94,0.47,1.71,2.01
0.070,-0.53,0.42,2.81,2.89
0.080,-0.08,0.60,3.21,3.27
0.091,0.23,0.68,2.89,2.98
0.101,0.25,0.26,2.27,2.30
0.111,0.19,-0.09,1.66,1.67
0.121,0.12,-0.00,0.98,0.99
0.131,-0.49,0.02,0.29,0.57
0.141,-0.92,-0.20,-0.09,0.95
0.151,-0.88,-0.14,-0.14,0.90
0.161,-0.27,-0.03,0.26,0.37
0.171,0.41,-0.08,0.21,0.47
0.181,0.79,-0.41,-0.21,0.91
0.191,0.98,-0.93,-0.26,1.38
0.201,1.62,-1.86,-0.33,2.49
0.211,2.01,-1.64,-0.57,2.66
0.221,1.49,-0.99,0.25,1.81
0.232,1.03,-0.67,0.93,1.54
0.242,1.01,-0.27,0.96,1.42
0.252,0.75,0.11,1.02,1.27
0.262,0.52,0.36,1.22,1.38
0.272,0.28,0.41,1.67,1.75
0.282,-0.83,0.45,2.15,2.35
0.292,-1.99,1.15,1.89,2.97
0.302,-0.44,0.92,1.15,1.54
0.312,1.56,-0.39,0.73,1.77
0.322,0.67,-0.30,0.52,0.89
0.332,0.02,-0.05,0.50,0.50
0.342,0.20,-0.54,0.52,0.77
0.352,0.03,-0.47,0.18,0.51
0.362,-0.27,-0.06,-0.28,0.39
0.373,-0.18,0.13,-0.81,0.85
0.383,-0.13,-0.15,-1.13,1.15
0.393,-0.63,-0.37,-0.75,1.05
0.403,-0.86,-0.53,0.38,1.08
0.413,-1.04,-0.54,1.18,1.66
0.423,-0.98,0.01,1.93,2.17
0.433,-0.18,0.21,2.75,2.76
0.443,-0.22,-0.01,0.54,0.58
0.453,-2.28,-0.97,1.48,2.89
0.463,-0.55,-0.06,1.84,1.92
0.473,0.10,0.81,0.86,1.18
0.483,-0.28,0.55,0.50,0.80
0.493,0.06,-0.10,0.33,0.35
0.503,-0.06,-0.36,0.27,0.45
0.513,-0.27,-0.24,0.22,0.42
0.524,-0.27,-0.35,0.42,0.61
0.534,-0.09,0.29,0.20,0.36
0.544,0.57,0.65,-0.49,1.00
0.554,0.51,0.17,-0.41,0.68
0.564,0.60,-0.09,-0.24,0.65
0.574,0.49,0.00,-0.01,0.49
0.584,0.26,-0.02,0.42,0.49
0.594,-0.10,-0.15,0.67,0.70
0.604,-0.20,-0.21,0.56,0.63
0.614,-0.27,-0.05,0.58,0.64
0.624,-0.38,0.35,0.42,0.67
0.634,0.35,0.43,0.00,0.55
0.644,0.09,-0.16,-0.47,0.50
0.654,-1.00,-0.98,-0.82,1.62
0.665,-1.22,-1.80,-0.82,2.32
0.675,-1.55,-2.45,-0.41,2.93
0.685,-2.63,-2.56,0.35,3.69
0.695,-2.41,-2.34,1.78,3.80
0.705,-2.54,-1.99,2.47,4.06
0.715,-1.79,-2.32,3.00,4.20
0.725,-2.41,-2.03,2.57,4.06
0.735,-2.34,-2.44,2.17,4.02
0.745,-2.72,-1.96,1.88,3.84
0.755,-1.87,-1.21,1.26,2.56
0.765,-0.64,-1.06,0.66,1.40
0.775,-0.88,-0.74,0.26,1.18
0.785,-1.57,-0.78,0.31,1.78
0.795,-2.14,-1.01,0.68,2.46
0.805,-2.45,-1.02,1.56,3.08
0.816,-2.44,-0.60,2.40,3.48
0.826,-0.86,-0.47,3.44,3.58
0.836,0.58,0.12,4.07,4.11
0.846,1.22,0.58,4.57,4.77
0.856,0.69,1.16,4.62,4.81
0.866,0.16,0.52,4.78,4.81
0.876,-0.59,0.15,4.67,4.70
0.886,-0.39,0.40,4.13,4.17
0.896,0.69,0.35,3.32,3.41
0.906,1.75,0.29,2.48,3.05
0.916,1.78,0.03,2.07,2.73
0.926,1.08,-0.38,2.20,2.48
0.936,0.71,-0.37,2.49,2.62
0.946,0.28,-0.24,2.81,2.84
0.957,0.63,0.05,3.55,3.61
0.967,1.12,0.28,4.48,4.63
0.977,0.61,-0.86,4.45,4.58
0.987,0.07,-1.95,4.12,4.56
0.997,-0.49,-2.34,4.33,4.95
1.007,0.34,-2.62,4.18,4.94
1.017,1.00,-2.29,3.28,4.12
1.027,1.53,-2.23,1.61,3.15
1.037,1.19,-1.68,-0.23,2.07
1.047,0.72,-2.19,-1.42,2.71
1.057,-0.27,-2.73,-1.72,3.24
1.067,-0.91,-2.69,-1.36,3.15
1.077,0.31,-2.73,-0.41,2.78
1.087,2.05,-2.55,0.63,3.33
1.098,3.18,-2.78,1.53,4.50
1.107,2.85,-3.30,1.94,4.77
1.118,1.77,-3.77,1.44,4.41
1.128,0.45,-3.71,0.02,3.74
1.138,-0.12,-3.53,-1.65,3.90
1.148,0.07,-3.40,-2.95,4.51
1.158,0.30,-3.13,-3.38,4.61
1.168,0.17,-3.01,-3.68,4.76
1.178,-0.14,-3.18,-3.68,4.87
1.188,-0.82,-3.60,-2.81,4.64
1.198,-1.67,-3.85,-1.50,4.45
1.208,-2.53,-4.17,-0.82,4.94
1.218,-2.08,-4.04,-1.13,4.69
1.228,0.31,-2.80,-1.85,3.37
1.238,3.08,-1.09,-3.00,4.44
1.248,3.38,-0.71,-4.03,5.30
1.258,1.36,-1.88,-4.55,5.11
1.269,-0.97,-2.58,-4.40,5.20
1.279,-1.31,-3.07,-7.26,7.99
1.289,-0.70,-3.84,-19.52,19.91
1.299,0.07,-1.79,-10.46,10.61
1.309,0.47,-2.28,-0.65,2.42
1.319,-0.14,-3.66,2.11,4.23
1.329,-0.20,-2.23,1.49,2.69
1.339,1.40,-0.60,0.92,1.78
1.349,2.90,-0.15,0.88,3.03
1.359,2.90,0.24,0.63,2.98
1.369,2.11,0.23,-0.02,2.12
1.379,1.33,0.36,-0.61,1.51
1.389,1.17,0.79,-0.93,1.69
1.399,1.32,1.13,-1.01,2.01
1.410,1.23,1.23,-0.42,1.79
1.420,1.16,1.20,0.64,1.79
1.430,0.73,1.24,1.60,2.15
1.440,-0.19,1.47,2.00,2.49
1.450,-0.80,1.27,1.95,2.46
1.460,-1.12,0.71,1.74,2.18
1.470,-0.60,0.10,1.64,1.75
1.480,-0.11,-0.58,1.77,1.87
1.490,-0.67,-0.80,1.09,1.51
1.500,-1.73,-0.74,-2.85,3.41
1.510,-1.52,-0.44,-4.20,4.49
1.520,-0.78,-0.13,-2.11,2.26
1.530,-0.11,-0.16,-1.19,1.20
1.541,0.42,-0.31,-1.13,1.25
1.551,0.53,-0.24,-0.68,0.89
1.561,0.20,0.05,-0.16,0.26
1.571,-0.02,0.11,0.18,0.21
1.581,-0.52,-0.33,0.48,0.78
1.591,-0.14,0.37,0.32,0.51
1.601,-0.10,0.36,0.33,0.50
1.611,-0.20,0.01,0.32,0.38
1.621,0.24,0.54,0.04,0.59
1.631,0.37,0.52,0.25,0.69
1.641,0.76,0.55,0.52,1.07
1.651,0.87,0.61,0.67,1.26
1.661,0.69,0.64,0.53,1.08
1.671,0.63,0.57,0.34,0.92
1.681,0.87,0.56,0.14,1.05
1.692,0.68,0.70,-0.10,0.98
1.702,0.30,0.67,-0.21,0.77
1.712,0.24,0.52,-0.17,0.59
1.722,0.23,0.35,-0.18,0.45
1.732,0.01,0.28,-0.27,0.39
1.742,-0.36,0.30,-0.32,0.57
1.752,-0.70,0.32,-0.32,0.84
1.762,-0.89,0.45,-0.31,1.05
1.772,-0.83,0.61,-0.23,1.06
1.782,-0.63,0.43,-0.08,0.76
1.792,-0.83,0.49,-0.01,0.96
1.802,-0.85,0.54,-0.02,1.01
1.812,-0.61,0.41,-0.10,0.74
1.822,-0.28,0.18,-0.15,0.36
1.832,-0.10,0.12,-0.15,0.22
1.843,-0.26,0.32,-0.12,0.43
1.853,-0.47,0.50,0.03,0.69
1.863,-0.51,0.38,0.17,0.66
1.873,-0.41,0.17,0.19,0.49
1.883,-0.19,0.06,0.12,0.24
1.893,0.04,0.06,0.03,0.08
1.903,0.41,0.10,-0.04,0.42
1.913,0.63,0.16,-0.10,0.66
1.923,0.35,0.15,-0.16,0.41
1.933,0.11,0.08,-0.22,0.26
1.943,-0.04,0.10,-0.25,0.27
1.953,-0.13,0.22,-0.08,0.27
1.963,-0.13,0.29,0.03,0.32
1.973,-0.10,0.29,-0.03,0.31
1.984,-0.15,0.31,-0.05,0.35
1.994,-0.18,0.32,-0.09,0.37
2.004,-0.26,0.36,-0.17,0.48
2.014,-0.27,0.39,-0.19,0.51
2.024,-0.16,0.35,-0.14,0.41
2.034,-0.08,0.35,-0.06,0.36
2.044,-0.05,0.33,-0.01,0.33
2.054,-0.03,0.31,0.02,0.31
2.064,-0.02,0.28,0.02,0.28
2.074,-0.02,0.23,0.01,0.23
2.084,-0.11,0.24,-0.02,0.26
2.094,-0.18,0.25,-0.03,0.31
2.104,-0.22,0.28,0.00,0.36
2.114,-0.16,0.30,-0.00,0.34
2.125,0.03,0.27,-0.05,0.28
2.135,0.16,0.28,-0.13,0.35
2.145,0.17,0.27,-0.17,0.36
2.155,0.08,0.23,-0.07,0.26
2.165,-0.00,0.21,-0.06,0.22
2.175,-0.10,0.21,-0.04,0.23
2.185,-0.12,0.22,-0.02,0.25
2.195,-0.05,0.24,-0.09,0.26
2.205,-0.01,0.22,-0.12,0.25
2.215,0.02,0.20,-0.16,0.26
2.225,0.03,0.23,-0.13,0.26
2.235,0.06,0.21,-0.07,0.23
2.245,0.07,0.21,0.04,0.23
2.255,0.11,0.17,0.13,0.24
2.266,0.04,0.16,0.14,0.21
2.276,0.01,0.15,0.10,0.18
2.286,0.09,0.13,0.06,0.16
2.296,0.10,0.16,0.02,0.19
2.306,-0.02,0.17,-0.04,0.18
2.316,-0.12,0.14,-0.06,0.19
2.326,-0.15,0.13,-0.08,0.22
2.336,-0.11,0.09,-0.09,0.17
2.346,-0.00,0.09,-0.09,0.13
2.356,0.14,0.13,-0.09,0.21
2.366,0.11,0.14,-0.01,0.18
2.376,-0.03,0.14,0.06,0.15
2.386,-0.07,0.11,0.00,0.13
2.396,-0.13,0.14,-0.07,0.21
2.407,-0.14,0.15,-0.07,0.22
2.416,-0.11,0.12,-0.04,0.17
2.427,-0.08,0.14,0.02,0.17
2.437,-0.01,0.14,0.04,0.14
2.447,0.05,0.15,0.02,0.16
2.457,0.20,0.16,-0.03,0.25
2.467,0.27,0.19,-0.04,0.33
2.477,0.07,0.22,-0.01,0.23
2.487,-0.08,0.19,-0.00,0.20
2.497,-0.13,0.16,-0.02,0.20
2.507,-0.14,0.13,-0.05,0.20
2.517,-0.11,0.15,-0.05,0.19
2.527,-0.02,0.15,-0.02,0.15
2.537,0.06,0.15,0.00,0.16
2.547,0.04,0.18,0.03,0.18
2.558,-0.03,0.13,0.02,0.13
2.568,-0.01,0.10,0.00,0.10
2.578,0.04,0.07,-0.02,0.08
2.588,0.08,0.06,-0.04,0.11
2.598,0.07,0.05,-0.05,0.10
2.608,-0.02,0.06,-0.10,0.12
2.618,-0.01,0.10,-0.05,0.11
2.628,0.01,0.13,0.02,0.13
2.638,0.05,0.13,0.03,0.14
2.648,0.11,0.11,-0.03,0.16
2.658,0.11,0.11,-0.04,0.16
2.668,0.04,0.12,-0.03,0.13
2.678,-0.03,0.10,-0.06,0.13
2.688,-0.13,0.10,-0.06,0.17
2.698,-0.15,0.09,-0.03,0.17
2.709,-0.12,0.01,-0.09,0.15
2.719,-0.12,0.00,-0.08,0.15
2.729,-0.06,0.02,-0.04,0.08
2.739,-0.02,0.08,0.01,0.08
2.749,-0.02,0.07,0.04,0.09
2.759,-0.03,0.04,0.01,0.05
2.769,-0.03,0.05,-0.02,0.06
2.779,-0.02,0.05,-0.03,0.06
2.789,-0.00,0.08,-0.02,0.08
2.799,0.03,0.10,-0.04,0.11
2.809,0.02,0.10,-0.00,0.10
2.819,-0.01,0.06,-0.01,0.07
2.829,-0.04,0.08,-0.02,0.09
2.839,-0.09,0.10,-0.01,0.13
2.849,-0.08,0.09,0.01,0.12
2.859,-0.02,0.08,-0.04,0.09
2.870,-0.02,0.08,-0.09,0.13
2.880,-0.02,0.07,-0.08,0.11
2.890,-0.02,0.12,-0.03,0.12
2.900,0.07,0.12,0.06,0.15
2.910,0.05,0.09,0.12,0.16
2.920,0.10,0.09,0.20,0.24
2.930,0.21,0.07,0.15,0.27
2.940,0.23,0.03,0.03,0.23
2.950,0.18,0.06,-0.11,0.22
2.960,0.13,0.10,-0.16,0.23
2.970,0.03,0.15,-0.14,0.21
2.980,-0.08,0.13,-0.11,0.19
2.990,-0.14,0.08,-0.05,0.17
3.001,-0.15,0.04,-0.00,0.15
3.011,-0.14,0.02,0.02,0.15
3.021,-0.10,0.04,0.02,0.11
3.031,-0.06,0.07,0.02,0.10
3.041,-0.02,0.08,-0.01,0.09
3.051,0.03,0.08,0.02,0.09
3.061,0.03,0.05,0.03,0.07
3.071,-0.04,0.04,0.00,0.05
3.081,-0.07,0.01,-0.05,0.08
3.091,-0.12,-0.04,-0.04,0.13
3.101,-0.24,-0.02,-0.03,0.24
3.111,-0.26,-0.02,-0.04,0.27
3.121,-0.16,-0.02,-0.09,0.19
3.131,0.02,0.04,-0.08,0.09
3.142,0.24,0.07,0.02,0.25
3.152,0.32,-0.03,0.06,0.32
3.162,0.11,-0.02,-0.07,0.13
3.172,-0.16,-0.04,-0.14,0.21
3.182,-0.30,-0.05,-0.11,0.32
3.192,-0.28,-0.02,-0.06,0.29
3.202,-0.08,0.07,0.03,0.11
3.212,0.10,0.05,0.09,0.14
3.222,0.07,0.12,0.07,0.16
3.232,-0.01,0.13,0.01,0.13
3.242,-0.12,0.08,-0.03,0.14
3.252,-0.16,0.06,-0.03,0.17
3.262,-0.16,0.08,-0.04,0.18
3.272,-0.12,0.05,-0.01,0.13
3.282,0.03,0.02,-0.02,0.04
3.293,0.13,0.03,-0.03,0.14
3.303,0.08,0.01,-0.02,0.08
3.313,-0.04,-0.03,-0.04,0.06
3.323,-0.08,-0.06,-0.00,0.10
3.333,-0.13,-0.06,-0.02,0.14
3.343,-0.14,-0.05,-0.04,0.15
3.353,-0.06,-0.03,-0.03,0.07
3.363,-0.02,-0.01,0.01,0.02
3.373,0.02,0.01,-0.03,0.04
3.383,0.07,0.03,-0.02,0.08
3.393,0.08,0.05,-0.02,0.09
3.403,0.03,0.05,-0.01,0.06
3.413,-0.02,0.04,-0.00,0.04
3.423,-0.09,0.04,0.00,0.10
3.433,-0.09,0.05,0.01,0.10
3.444,-0.06,0.02,-0.01,0.06
3.454,-0.01,0.04,-0.02,0.05
3.464,0.01,0.05,-0.02,0.05
3.474,0.00,0.03,-0.03,0.04
3.484,0.01,0.01,-0.01,0.02
3.494,-0.00,0.02,-0.02,0.03
3.504,-0.03,0.02,-0.02,0.04
3.514,-0.04,0.02,-0.00,0.05
3.524,-0.09,0.04,0.01,0.09
3.534,-0.08,0.02,-0.01,0.08
3.544,-0.07,0.03,-0.06,0.09
3.554,-0.06,0.03,-0.06,0.09
3.564,-0.05,0.01,-0.02,0.06
3.574,-0.00,0.02,-0.03,0.04
3.584,0.05,0.02,-0.02,0.06
3.595,0.14,0.04,0.05,0.16
3.605,0.11,0.03,0.04,0.12
3.615,-0.00,0.01,0.01,0.01
3.625,-0.08,-0.00,0.01,0.08
3.635,-0.10,-0.00,-0.02,0.10
3.645,-0.07,0.03,-0.05,0.09
3.655,-0.02,0.03,-0.03,0.05
3.665,0.01,0.01,0.01,0.02
3.675,0.03,-0.03,0.01,0.04
3.685,0.04,-0.02,-0.02,0.05
3.695,-0.01,0.00,-0.01,0.02
3.705,-0.05,0.01,-0.04,0.06
3.715,-0.04,0.04,-0.04,0.07
3.725,-0.05,0.06,-0.02,0.08
3.735,-0.06,0.06,-0.02,0.09
3.746,-0.06,0.06,-0.03,0.09
3.756,-0.01,0.05,-0.04,0.07
3.766,0.06,0.05,0.02,0.08
3.776,0.06,0.03,0.09,0.12
3.786,0.02,-0.00,0.11,0.11
3.796,0.01,-0.00,0.03,0.03
3.806,-0.03,0.01,-0.07,0.08
3.816,-0.09,-0.02,-0.13,0.16
3.826,-0.12,0.01,-0.10,0.16
3.836,-0.13,0.01,-0.07,0.15
3.846,-0.11,0.02,-0.02,0.11
3.856,-0.04,0.04,0.05,0.08
3.866,0.01,0.03,0.06,0.07
3.876,0.02,0.02,0.02,0.04
3.886,0.10,0.00,0.01,0.10
3.897,0.09,0.02,0.04,0.10
3.907,0.02,0.03,0.00,0.04
3.917,-0.04,-0.00,-0.02,0.04
3.927,-0.04,-0.00,-0.06,0.07
3.937,-0.02,0.01,-0.07,0.07
3.947,-0.00,0.01,-0.04,0.04
3.957,0.03,0.02,-0.01,0.04
3.967,0.04,0.00,0.00,0.04
3.977,0.06,-0.00,0.04,0.07
3.987,0.07,-0.01,0.03,0.08
3.997,-0.02,-0.00,0.01,0.03
4.007,-0.08,-0.00,0.00,0.08
4.017,-0.06,0.01,-0.06,0.09
4.028,-0.06,0.02,-0.13,0.14
4.038,-0.02,0.02,-0.10,0.11
4.048,0.04,0.04,0.01,0.05
4.058,0.08,0.05,0.10,0.13
4.068,0.08,0.04,0.10,0.14
4.078,0.02,0.05,0.04,0.06
4.088,-0.03,0.05,-0.04,0.07
4.098,-0.05,0.03,-0.04,0.07
4.108,-0.04,0.07,-0.01,0.08
4.118,-0.02,0.05,0.01,0.06
4.128,-0.01,0.04,-0.00,0.04
4.138,-0.01,0.03,0.01,0.03
4.148,-0.02,-0.01,-0.00,0.02
4.159,-0.03,-0.01,0.02,0.03
4.169,-0.03,-0.04,0.01,0.05
4.179,0.03,-0.02,-0.01,0.04
4.189,0.04,0.00,-0.01,0.04
4.199,-0.01,-0.02,-0.03,0.04
4.209,-0.04,-0.03,-0.08,0.09
4.219,-0.03,-0.02,-0.05,0.06
4.229,-0.00,-0.03,0.00,0.03
4.239,0.03,-0.01,0.01,0.04
4.249,0.02,0.01,-0.01,0.02
4.259,0.02,0.03,-0.01,0.04
4.269,0.05,0.04,0.03,0.07
4.279,0.08,0.02,0.03,0.08
4.289,0.03,0.00,0.02,0.04
4.299,-0.03,0.02,-0.02,0.04
4.310,-0.04,0.01,-0.02,0.05
4.320,-0.05,0.03,-0.04,0.07
4.330,-0.07,0.03,-0.04,0.08
4.340,-0.04,0.02,-0.00,0.04
4.350,-0.03,0.02,-0.01,0.04
4.360,-0.02,0.01,-0.00,0.02
4.370,-0.03,0.03,-0.01,0.04
4.380,-0.01,0.00,-0.02,0.02
4.390,0.02,0.04,-0.03,0.06
4.400,0.03,0.07,-0.03,0.09
4.410,0.02,0.05,0.00,0.05
4.420,-0.03,0.03,0.05,0.07
4.430,-0.04,0.01,0.04,0.06
4.440,-0.01,0.02,-0.01,0.02
4.450,-0.00,-0.00,-0.04,0.04
4.461,-0.02,-0.01,-0.02,0.03
4.471,-0.03,-0.04,-0.01,0.05
4.481,-0.03,-0.04,-0.04,0.06
4.491,-0.02,-0.04,-0.02,0.05
4.501,0.02,-0.04,-0.01,0.04
4.511,0.01,-0.00,-0.01,0.01
4.521,0.04,0.03,0.00,0.05
4.531,0.06,0.04,0.03,0.08
4.541,0.06,0.06,0.04,0.09
4.551,0.05,0.06,0.03,0.08
4.561,0.03,0.04,0.01,0.05
4.571,0.03,0.02,-0.02,0.04
4.581,0.04,0.01,-0.04,0.06
4.591,-0.02,0.01,-0.04,0.04
4.602,-0.04,-0.01,-0.04,0.06
4.612,-0.03,-0.01,-0.00,0.04
4.622,-0.03,0.00,0.02,0.04
4.632,-0.04,0.01,-0.00,0.04
4.642,-0.02,0.01,-0.03,0.04
4.652,-0.01,0.02,-0.00,0.02
4.662,0.02,0.04,-0.01,0.04
4.672,0.05,0.04,0.02,0.06
4.682,0.03,0.02,0.03,0.05
4.692,-0.03,-0.00,-0.00,0.03
4.702,-0.05,0.01,-0.02,0.05
4.712,-0.04,0.03,-0.02,0.05
4.722,-0.04,0.01,-0.01,0.04
4.732,-0.01,-0.01,0.01,0.02
4.743,-0.01,-0.01,-0.03,0.04
4.753,-0.00,-0.03,-0.09,0.09
4.763,0.03,0.01,-0.10,0.10
4.773,0.04,0.02,-0.01,0.04
4.783,-0.02,-0.02,0.08,0.08
4.793,-0.03,-0.03,0.13,0.14
4.803,-0.02,-0.03,0.10,0.11
4.813,0.00,-0.02,-0.01,0.02
4.823,0.01,0.00,-0.12,0.12
4.833,0.00,0.03,-0.14,0.14
4.843,-0.01,0.04,-0.08,0.09
4.853,0.00,0.05,0.01,0.05
4.863,0.03,0.05,0.07,0.09
4.873,0.04,0.04,0.07,0.09
4.883,0.04,0.04,0.05,0.07
4.894,0.01,0.04,0.05,0.06
4.904,-0.01,0.02,0.01,0.03
4.914,-0.06,-0.00,-0.01,0.06
4.924,-0.03,-0.04,-0.03,0.06
4.934,0.01,-0.05,-0.07,0.09
4.944,0.07,-0.03,-0.04,0.08
4.954,0.04,-0.01,0.02,0.05
4.964,-0.02,-0.01,0.01,0.02
4.974,-0.04,-0.01,-0.04,0.06
4.984,-0.03,-0.01,-0.02,0.03
4.994,0.02,0.00,-0.01,0.02
5.004,0.06,0.03,0.01,0.06
5.014,0.03,0.03,0.04,0.06
5.024,-0.05,0.01,0.05,0.08
5.035,-0.08,0.00,-0.02,0.09
5.045,-0.05,-0.01,-0.15,0.16
5.055,0.01,0.02,-0.11,0.11
5.065,0.05,0.04,0.00,0.07
5.075,-0.00,0.03,0.08,0.08
5.085,-0.03,0.02,0.08,0.08
5.095,0.00,0.03,0.01,0.03
5.105,-0.02,0.05,-0.04,0.07
5.115,-0.04,0.04,-0.05,0.08
5.125,-0.02,0.01,-0.03,0.04
5.135,-0.00,0.05,0.02,0.05
5.145,0.04,0.03,0.01,0.05
5.155,0.05,0.03,0.02,0.06
5.165,0.09,0.01,0.01,0.09
5.175,0.02,-0.01,0.05,0.05
5.185,-0.04,-0.02,0.05,0.07
5.196,-0.02,-0.03,-0.02,0.04
5.206,-0.01,-0.03,-0.05,0.06
5.216,0.00,-0.01,-0.08,0.08
5.226,-0.02,0.00,-0.04,0.05
5.236,-0.03,-0.02,-0.02,0.04
5.246,-0.00,-0.03,-0.01,0.03
5.256,0.03,-0.03,0.02,0.04
5.266,0.03,-0.00,0.00,0.03
5.276,0.01,0.02,0.01,0.02
5.286,0.01,0.03,0.02,0.04
5.296,0.01,0.02,0.01,0.03
5.306,0.07,0.04,-0.01,0.08
5.316,0.03,0.04,-0.00,0.05
5.327,-0.03,-0.01,-0.02,0.04
5.337,-0.10,-0.02,-0.04,0.11
5.347,-0.09,-0.02,-0.04,0.10
5.357,-0.05,-0.00,-0.05,0.07
5.367,0.03,0.02,-0.01,0.04
5.377,-0.02,0.02,0.01,0.03
5.387,-0.04,0.01,0.01,0.04
5.397,-0.03,0.01,0.01,0.03
5.407,0.01,0.03,0.01,0.03
5.417,0.02,0.03,0.02,0.04
5.427,0.02,0.02,-0.00,0.03
5.437,0.09,0.00,-0.04,0.09
5.447,0.08,-0.00,-0.02,0.08
5.457,-0.03,-0.01,0.02,0.03
5.467,-0.07,-0.02,0.00,0.07
5.478,-0.04,-0.02,-0.03,0.06
5.488,0.01,-0.01,-0.02,0.03
5.498,0.02,0.00,-0.03,0.03
5.508,-0.01,-0.01,-0.01,0.02
5.518,0.02,-0.01,-0.02,0.03
5.528,0.07,0.01,-0.03,0.08
5.538,0.05,0.03,-0.00,0.06
5.548,0.00,0.01,0.03,0.03
5.558,-0.04,0.01,0.01,0.04
5.568,-0.02,0.01,-0.01,0.03
5.578,-0.01,0.01,-0.01,0.02
5.588,0.02,-0.00,-0.00,0.02
5.598,0.01,0.01,-0.01,0.02
5.608,-0.00,-0.01,-0.00,0.01
5.619,0.01,0.01,-0.02,0.03
5.629,0.01,0.01,0.02,0.02
5.639,0.02,0.00,-0.01,0.02
5.649,-0.02,0.01,-0.04,0.04
5.659,-0.03,0.01,-0.04,0.05
5.669,-0.02,0.01,-0.02,0.03
5.679,-0.01,0.02,0.02,0.03
5.689,-0.04,0.02,0.03,0.05
5.699,-0.03,-0.03,-0.06,0.07
5.709,-0.03,0.01,-0.08,0.08
5.719,0.00,0.03,-0.03,0.04
5.729,0.04,0.01,0.04,0.05
5.739,0.05,-0.02,0.09,0.10
5.749,0.06,-0.05,0.10,0.13
5.759,-0.02,-0.05,0.06,0.08
5.770,-0.02,-0.02,-0.02,0.04
5.780,0.00,0.03,-0.13,0.14
5.790,-0.01,0.03,-0.16,0.17
5.800,-0.03,0.02,-0.07,0.08
5.810,-0.01,0.03,0.02,0.04
5.820,-0.01,0.03,0.09,0.10
5.830,-0.01,0.04,0.10,0.11
5.840,0.02,0.03,0.07,0.08
5.850,0.03,0.02,0.06,0.07
5.860,-0.00,-0.01,0.02,0.02
5.870,-0.04,-0.04,-0.05,0.07
5.880,0.01,-0.02,-0.05,0.06
5.890,0.01,-0.00,-0.03,0.03
5.900,-0.03,-0.02,-0.02,0.04
5.911,-0.05,-0.04,-0.04,0.08
5.921,-0.03,-0.01,-0.03,0.04
5.931,0.04,0.01,0.00,0.04
5.941,0.09,0.02,0.03,0.10
5.951,0.05,0.01,0.04,0.07
5.961,-0.01,-0.00,0.00,0.01
5.971,-0.03,-0.02,-0.01,0.04
5.981,-0.01,0.01,-0.01,0.02
5.991,-0.00,0.03,-0.05,0.06
6.001,-0.04,0.00,-0.14,0.15
6.011,-0.04,0.01,-0.14,0.14
6.021,-0.01,0.01,-0.00,0.01
6.031,-0.01,0.02,0.11,0.12
6.041,-0.01,0.01,0.10,0.10
6.051,0.02,0.02,0.00,0.03
6.062,0.06,0.04,-0.04,0.08
6.072,-0.01,0.07,-0.03,0.08
6.082,-0.07,0.04,-0.01,0.08
6.092,-0.08,0.03,-0.03,0.09
6.102,-0.04,0.02,-0.01,0.05
6.112,0.01,-0.00,0.01,0.01
6.122,0.02,-0.03,0.01,0.04
6.132,0.01,-0.05,-0.01,0.05
6.142,-0.00,-0.05,0.02,0.05
6.152,0.02,-0.06,0.01,0.07
6.162,0.06,-0.05,0.01,0.08
6.172,0.01,-0.04,-0.02,0.05
6.182,-0.04,-0.02,-0.02,0.05
6.192,-0.02,-0.02,-0.02,0.03
6.203,0.04,-0.00,0.01,0.04
6.213,0.07,0.01,0.01,0.07
6.223,0.08,0.04,0.02,0.09
6.233,0.06,0.03,0.01,0.07
6.243,0.03,0.01,0.00,0.03
6.253,0.00,0.03,-0.02,0.04
6.263,-0.02,-0.00,-0.03,0.03
6.273,-0.02,0.01,-0.02,0.03
6.283,-0.02,0.02,-0.02,0.04
6.293,-0.02,0.02,-0.03,0.05
6.303,-0.03,0.01,-0.01,0.04
6.313,-0.01,0.02,-0.01,0.03
6.323,-0.00,0.03,0.01,0.03
6.334,-0.01,0.04,0.01,0.04
6.344,-0.04,0.02,0.00,0.04
6.354,0.00,0.02,-0.02,0.03
6.364,0.03,0.03,0.02,0.05
6.374,0.03,-0.01,0.01,0.03
6.384,-0.03,-0.01,-0.00,0.03
6.394,-0.05,-0.02,-0.02,0.06
6.404,-0.02,-0.02,-0.03,0.04
6.414,0.01,-0.00,-0.00,0.02
6.424,0.01,0.01,-0.01,0.02
6.434,0.02,0.00,0.01,0.03
6.444,0.02,-0.01,0.00,0.02
6.454,-0.02,-0.01,-0.02,0.03
6.464,-0.03,-0.00,-0.01,0.03
6.475,-0.01,0.01,-0.01,0.01
6.484,0.02,0.01,0.01,0.03
6.495,0.01,-0.02,-0.03,0.03
6.505,0.01,0.00,-0.05,0.05
6.515,-0.00,-0.01,-0.04,0.04
6.525,0.03,-0.00,-0.02,0.03
6.535,0.04,0.01,0.03,0.05
6.545,0.04,-0.00,0.04,0.06
6.555,-0.02,-0.01,0.01,0.03
6.565,-0.07,-0.00,-0.06,0.10
6.575,-0.04,0.02,-0.07,0.09
6.585,0.03,0.04,-0.02,0.05
6.595,0.02,0.04,0.03,0.05
6.605,0.02,-0.00,0.07,0.07
6.615,-0.01,-0.04,0.06,0.08
6.625,-0.02,-0.01,0.04,0.04
6.636,-0.06,-0.00,-0.03,0.07
6.646,-0.03,0.02,-0.12,0.12
6.656,0.02,0.03,-0.08,0.08
6.666,-0.01,-0.01,0.00,0.02
6.676,-0.04,0.10,-0.00,0.11
6.686,0.04,0.05,0.04,0.07
6.696,0.02,0.02,0.10,0.10
6.706,0.01,0.07,0.11,0.13
6.716,0.05,-0.01,0.03,0.06
6.726,0.03,-0.03,-0.04,0.06
6.736,0.00,-0.06,-0.04,0.07
6.746,-0.03,-0.08,-0.04,0.09
6.756,-0.02,-0.09,-0.07,0.12
6.766,-0.02,-0.07,-0.05,0.09
6.776,-0.00,-0.06,-0.00,0.06
6.787,0.02,-0.02,-0.01,0.03
6.797,0.05,-0.01,0.01,0.05
6.807,0.03,0.01,0.03,0.04
6.817,0.03,0.01,0.00,0.03
6.827,0.02,0.01,0.02,0.03
6.837,0.02,0.04,0.03,0.05
6.847,0.01,0.04,0.03,0.05
6.857,-0.01,0.01,-0.05,0.05
6.867,-0.03,0.03,-0.18,0.18
6.877,-0.04,0.02,-0.05,0.07
6.887,0.01,0.01,0.05,0.05
6.897,0.03,0.02,0.05,0.06
6.907,0.02,0.02,0.03,0.04
6.917,-0.01,0.03,-0.01,0.03
6.928,-0.06,0.01,-0.05,0.07
6.938,-0.02,0.02,-0.03,0.04
6.948,-0.01,0.04,0.01,0.04
6.958,0.00,0.04,0.05,0.07
6.968,0.01,0.02,0.03,0.04
6.978,-0.00,-0.01,0.02,0.02
6.988,0.01,-0.01,0.01,0.02
6.998,-0.00,-0.04,-0.01,0.04
7.008,0.00,-0.04,-0.02,0.04
7.018,-0.03,-0.04,0.01,0.05
7.028,-0.03,-0.05,-0.02,0.06
7.038,-0.03,-0.01,-0.05,0.06
7.048,-0.00,-0.02,-0.04,0.04
7.058,0.03,-0.02,0.02,0.04
7.068,0.05,0.01,0.01,0.05
7.079,0.06,-0.00,-0.01,0.06
7.089,0.04,-0.02,-0.02,0.06
7.099,0.02,0.01,0.00,0.02
7.109,-0.04,0.01,0.02,0.04
7.119,-0.03,0.00,-0.02,0.04
7.129,-0.02,0.01,-0.00,0.02
7.139,0.01,0.02,0.00,0.02
7.149,0.02,0.03,-0.01,0.04
7.159,-0.02,0.02,-0.03,0.04
7.169,-0.03,0.01,-0.02,0.04
7.179,-0.03,0.01,-0.00,0.03
7.189,0.01,0.01,0.02,0.02
7.199,0.01,0.01,-0.00,0.02
7.209,0.00,0.00,-0.00,0.00
7.220,-0.01,0.00,0.02,0.02
7.230,-0.02,-0.00,-0.02,0.02
7.240,-0.02,-0.01,-0.03,0.04
7.250,-0.01,-0.02,-0.01,0.02
7.260,0.00,-0.01,0.01,0.01
7.270,0.00,-0.01,0.00,0.01
7.280,0.01,-0.02,0.00,0.02
7.290,0.02,-0.01,0.01,0.02
7.300,0.03,-0.02,-0.00,0.03
7.310,0.04,0.01,0.01,0.05
7.320,0.02,0.00,0.01,0.03
7.330,-0.01,-0.03,-0.01,0.03
7.340,-0.00,-0.01,-0.04,0.04
7.350,-0.01,-0.01,-0.04,0.04
7.360,-0.01,0.00,-0.03,0.04
7.371,-0.00,0.00,-0.00,0.00
7.381,0.01,-0.00,0.04,0.04
7.391,0.02,0.00,-0.00,0.02
7.401,0.00,-0.00,-0.05,0.05
7.411,-0.04,0.02,-0.05,0.07
7.421,-0.04,0.02,-0.02,0.05
7.431,-0.03,-0.01,0.03,0.05
7.441,0.00,-0.02,0.06,0.07
7.451,-0.02,-0.02,0.07,0.08
7.461,-0.03,-0.02,-0.01,0.04
7.471,-0.05,-0.01,-0.11,0.12
7.481,-0.06,0.02,-0.12,0.13
7.491,-0.04,0.03,-0.05,0.07
7.502,0.02,0.05,0.04,0.06
7.512,0.04,0.06,0.07,0.10
7.522,0.05,0.05,0.06,0.09
7.532,0.03,0.02,0.09,0.10
7.542,0.00,-0.01,0.07,0.07
7.552,-0.03,-0.04,0.02,0.05
7.562,-0.00,-0.06,-0.03,0.07
7.572,-0.00,-0.06,-0.05,0.08
7.582,0.01,-0.07,-0.05,0.09
7.592,0.02,-0.06,-0.02,0.07
7.602,0.02,-0.04,-0.01,0.04
7.612,0.03,-0.01,-0.00,0.03
7.622,0.03,-0.00,0.01,0.03
7.632,0.03,0.01,-0.01,0.03
7.642,0.04,0.02,0.01,0.04
7.652,-0.01,0.03,0.02,0.04
7.663,-0.01,0.03,0.00,0.03
7.673,0.01,0.01,0.02,0.03
7.683,-0.01,0.01,0.01,0.02
7.693,-0.01,-0.02,-0.11,0.11
7.703,-0.07,-0.00,-0.12,0.14
7.713,-0.06,0.00,-0.03,0.06
7.723,-0.03,0.02,0.07,0.08
7.733,0.00,0.03,0.10,0.10
7.743,0.03,0.03,0.03,0.05
7.753,-0.02,0.04,-0.02,0.05
7.763,-0.05,0.03,-0.05,0.07
7.773,-0.04,0.03,-0.02,0.05
7.784,-0.01,0.04,-0.01,0.04
7.793,0.01,0.04,0.01,0.04
7.804,0.02,0.00,-0.01,0.03
7.814,0.03,-0.02,0.00,0.04
7.824,0.01,-0.05,0.01,0.05
7.834,-0.00,-0.05,0.01,0.05
7.844,-0.01,-0.03,-0.01,0.04
7.854,0.01,-0.04,-0.02,0.05
7.864,0.03,-0.03,-0.03,0.05
7.874,0.01,-0.01,-0.04,0.05
7.884,-0.00,-0.01,-0.01,0.02
7.894,0.03,-0.02,0.02,0.04
7.904,0.03,-0.02,0.01,0.04
7.914,0.04,0.01,0.01,0.04
7.924,0.05,0.02,0.02,0.06
7.934,0.04,0.02,-0.00,0.04
7.945,-0.02,-0.00,-0.01,0.02
7.955,-0.04,-0.01,-0.01,0.04
7.965,-0.03,0.01,-0.03,0.04
7.975,0.01,0.00,-0.02,0.02
7.985,-0.02,0.02,0.01,0.03
7.995,-0.04,0.01,-0.01,0.04
8.005,-0.05,0.00,0.00,0.05
8.015,-0.02,0.02,0.02,0.03
8.025,0.02,0.04,0.03,0.05
8.035,-0.00,0.02,0.04,0.04
8.045,-0.02,0.02,0.02,0.03
8.055,0.00,0.02,0.00,0.02
8.065,0.01,0.02,-0.02,0.03
8.075,-0.01,0.00,-0.05,0.05
8.086,-0.02,-0.02,-0.01,0.03
8.096,-0.00,-0.02,0.03,0.04
8.106,0.00,-0.01,-0.02,0.02
8.116,-0.01,-0.02,-0.00,0.02
8.126,-0.02,-0.03,-0.02,0.04
8.136,-0.02,-0.02,-0.03,0.04
8.146,0.02,0.01,-0.01,0.02
8.156,0.05,0.01,0.02,0.05
8.166,0.04,0.01,0.02,0.04
8.176,0.02,-0.01,-0.00,0.02
8.186,0.01,-0.04,-0.02,0.04
8.196,-0.02,-0.02,-0.03,0.04
8.206,-0.02,0.01,-0.03,0.04
8.216,-0.01,0.03,-0.01,0.03
8.227,-0.00,0.01,-0.00,0.01
8.236,0.00,0.01,-0.01,0.01
8.247,-0.00,0.01,-0.01,0.01
8.257,-0.04,-0.00,-0.03,0.06
8.267,-0.05,0.01,-0.04,0.07
8.277,-0.01,0.02,0.00,0.03
8.287,0.02,0.00,0.06,0.06
8.297,0.02,-0.02,0.07,0.08
8.307,-0.01,-0.04,0.05,0.06
8.317,-0.02,-0.02,-0.02,0.04
8.327,-0.03,0.01,-0.12,0.13
8.337,-0.04,0.03,-0.12,0.13
8.347,-0.05,0.03,-0.04,0.07
8.357,-0.01,0.05,0.00,0.05
8.367,0.02,0.06,0.08,0.10
8.377,0.04,0.05,0.08,0.11
8.388,0.03,0.00,0.05,0.06
8.398,0.00,-0.01,0.06,0.06
8.408,-0.03,-0.04,0.03,0.06
8.418,-0.02,-0.05,-0.02,0.06
8.428,-0.00,-0.06,-0.05,0.08
8.438,0.01,-0.06,-0.03,0.07
8.448,0.02,-0.05,-0.02,0.06
8.458,0.05,-0.04,-0.03,0.07
8.468,0.04,-0.01,0.00,0.04
8.478,0.01,-0.00,0.02,0.03
8.488,0.01,0.02,0.02,0.03
8.498,0.04,0.02,-0.01,0.04
8.509,0.02,0.03,-0.00,0.03
8.519,-0.03,0.02,0.01,0.04
8.528,-0.03,0.02,0.02,0.05
8.539,-0.02,0.02,-0.02,0.04
8.549,-0.03,0.03,-0.11,0.11
8.559,-0.03,0.02,-0.12,0.13
8.569,0.00,0.02,-0.02,0.03
8.579,0.01,0.01,0.08,0.08
8.589,-0.00,-0.00,0.07,0.07
8.599,-0.02,0.00,0.03,0.03
8.609,-0.03,0.02,-0.03,0.05
8.619,-0.05,0.03,-0.02,0.06
8.629,-0.06,0.01,-0.03,0.07
8.639,-0.03,0.03,-0.02,0.04
8.649,0.01,0.04,0.02,0.05
8.659,0.02,0.00,0.03,0.04
8.670,0.01,-0.04,0.02,0.05
8.680,0.01,-0.03,0.03,0.04
8.690,0.01,-0.03,0.02,0.04
8.700,-0.01,-0.04,0.01,0.05
8.710,-0.01,-0.04,-0.01,0.04
8.720,-0.01,-0.01,-0.06,0.06
8.730,-0.02,-0.00,-0.06,0.07
8.740,0.02,-0.02,-0.05,0.05
8.750,0.02,-0.02,0.01,0.04
8.760,0.01,-0.00,0.03,0.03
8.770,0.02,-0.00,0.01,0.03
8.780,0.02,-0.00,0.02,0.02
8.790,-0.01,0.00,0.01,0.02
8.800,-0.03,0.01,0.02,0.03
8.810,-0.03,0.01,-0.00,0.03
8.821,-0.02,0.01,-0.04,0.04
8.831,0.00,0.03,-0.05,0.06
8.841,0.01,0.05,-0.03,0.05
8.851,-0.02,0.03,0.01,0.03
8.861,-0.07,0.01,-0.00,0.07
8.871,-0.07,0.02,0.00,0.07
8.881,0.01,0.01,-0.00,0.02
8.891,0.03,0.02,0.01,0.04
8.901,0.02,0.01,0.01,0.02
8.911,-0.02,-0.02,0.00,0.03
8.921,-0.03,-0.03,0.02,0.04
8.931,0.00,-0.03,-0.01,0.03
8.941,0.01,-0.01,-0.00,0.02
8.951,-0.01,-0.02,-0.01,0.03
8.961,-0.01,-0.02,-0.04,0.04
8.972,0.01,-0.00,-0.03,0.03
8.982,0.02,-0.01,-0.01,0.02
8.992,0.02,-0.01,-0.01,0.03
9.002,0.01,-0.00,-0.00,0.01
9.012,0.02,-0.01,0.02,0.03
9.022,0.02,0.01,-0.00,0.02
9.032,-0.00,-0.01,0.00,0.01
9.042,-0.02,-0.00,0.00,0.02
9.052,0.01,0.02,-0.00,0.02
9.062,0.01,0.02,0.01,0.02
9.072,-0.01,0.01,0.00,0.02
9.082,-0.00,-0.01,-0.01,0.01
9.092,-0.02,-0.00,-0.05,0.05
9.102,-0.02,0.00,-0.04,0.04
9.113,-0.04,0.01,-0.01,0.04
9.123,0.00,0.01,0.01,0.01
9.133,0.04,0.01,0.01,0.04
9.143,0.01,0.02,0.00,0.02
9.153,-0.05,0.02,-0.04,0.07
9.163,-0.07,0.02,-0.04,0.09
9.173,-0.02,0.01,-0.04,0.05
9.183,0.03,0.00,0.02,0.04
9.193,0.06,-0.03,0.08,0.10
9.203,0.01,-0.06,0.10,0.12
9.213,-0.03,-0.04,0.00,0.05
9.223,-0.06,-0.04,-0.09,0.12
9.233,-0.07,-0.01,-0.14,0.16
9.243,-0.04,0.01,-0.08,0.09
9.254,0.02,0.05,0.00,0.05
9.264,0.03,0.09,0.08,0.12
9.274,0.03,0.08,0.09,0.12
9.284,0.03,0.05,0.06,0.08
9.294,-0.00,0.01,0.04,0.04
9.304,-0.02,-0.02,0.02,0.04
9.314,-0.03,-0.05,-0.05,0.08
9.324,-0.02,-0.07,-0.07,0.10
9.334,-0.02,-0.06,-0.03,0.07
9.344,0.01,-0.06,-0.04,0.07
9.354,0.00,-0.03,-0.03,0.04
9.364,0.03,-0.01,-0.01,0.03
9.374,0.03,0.01,0.04,0.05
9.384,0.02,0.00,0.02,0.03
9.395,-0.01,-0.01,0.01,0.02
9.404,-0.03,-0.01,-0.00,0.04
9.415,-0.02,0.01,0.02,0.03
9.425,-0.03,0.01,-0.01,0.03
9.435,0.04,0.02,0.00,0.04
9.445,0.05,0.02,-0.04,0.07
9.455,-0.01,0.00,-0.11,0.11
9.465,-0.02,0.01,-0.06,0.06
9.475,-0.02,0.03,0.05,0.06
9.485,-0.00,0.04,0.10,0.11
9.495,0.02,0.03,0.07,0.08
9.505,-0.01,0.01,-0.03,0.03
9.515,-0.04,0.02,-0.08,0.09
9.525,-0.05,0.00,-0.05,0.07
9.536,-0.05,0.01,0.00,0.05
9.546,-0.02,0.03,0.03,0.05
9.556,0.02,0.03,0.04,0.06
9.566,0.04,0.03,0.04,0.07
9.576,0.03,-0.02,0.04,0.06
9.586,0.01,-0.04,0.03,0.05
9.596,-0.02,-0.05,-0.01,0.06
9.606,0.01,-0.03,-0.03,0.05
9.616,0.01,-0.03,-0.02,0.04
9.626,-0.02,-0.03,-0.02,0.04
9.636,-0.02,-0.02,-0.05,0.06
9.646,0.04,-0.01,-0.00,0.05
9.656,0.08,0.01,0.04,0.10
9.666,0.04,0.01,0.02,0.04
9.677,0.00,0.02,-0.04,0.04
9.686,-0.02,0.02,-0.00,0.03
9.697,0.00,0.02,0.01,0.03
9.707,-0.01,0.01,0.00,0.02
9.717,-0.01,0.01,-0.02,0.02
9.727,-0.01,0.02,-0.03,0.04
9.737,0.00,0.00,-0.01,0.01
9.747,0.00,0.00,-0.00,0.00
9.757,-0.04,-0.00,-0.03,0.05
9.767,-0.04,0.01,-0.02,0.04
9.777,-0.01,0.01,0.01,0.02
9.787,0.00,0.01,0.01,0.01
9.797,0.01,0.02,0.01,0.02
9.807,-0.01,0.00,0.02,0.03
9.817,-0.02,-0.01,0.01,0.02
9.827,-0.01,-0.03,-0.02,0.04
9.838,0.01,-0.01,-0.00,0.01
9.848,0.03,-0.01,-0.03,0.04
9.858,-0.00,-0.02,-0.00,0.02
9.868,-0.00,-0.02,0.03,0.03
9.878,0.01,-0.02,-0.00,0.02
9.888,0.04,-0.00,-0.01,0.04
9.898,0.07,0.01,0.01,0.07
9.908,0.01,-0.01,0.02,0.02
9.918,-0.05,-0.03,-0.02,0.06
9.928,-0.04,0.00,-0.04,0.06
9.938,0.03,0.02,0.02,0.04
9.948,0.01,0.00,0.01,0.02
9.958,0.01,-0.01,-0.02,0.02
9.968,-0.03,-0.02,-0.03,0.04
9.979,-0.05,-0.00,-0.02,0.05
9.989,-0.01,0.00,-0.01,0.01
9.999,0.05,0.01,-0.01,0.05
10.009,0.05,0.00,-0.00,0.05
10.019,-0.01,-0.03,0.01,0.03
10.029,-0.06,-0.04,-0.02,0.07
10.039,-0.05,-0.01,-0.04,0.06
10.049,-0.02,0.02,0.00,0.03
10.059,0.01,0.02,0.02,0.03
10.069,0.05,0.02,-0.02,0.06
10.079,0.05,0.02,-0.01,0.06
10.089,-0.04,0.01,-0.02,0.05
10.099,-0.09,-0.00,-0.04,0.10
10.110,-0.03,0.00,0.01,0.03
10.119,0.04,-0.01,0.08,0.09
10.130,0.04,-0.05,0.08,0.10
10.140,-0.02,-0.04,0.03,0.06
10.150,-0.06,-0.03,-0.08,0.11
10.160,-0.05,0.01,-0.14,0.14
10.170,-0.01,0.03,-0.09,0.09
10.180,0.03,0.04,-0.01,0.05
10.190,0.03,0.08,0.06,0.11
10.200,0.04,0.08,0.07,0.11
10.210,0.01,0.06,0.08,0.10
10.220,0.02,0.01,0.05,0.06
10.230,-0.01,-0.02,0.01,0.02
10.240,-0.03,-0.04,-0.04,0.06
10.250,-0.02,-0.06,-0.03,0.07
10.260,-0.01,-0.08,-0.03,0.09
10.270,0.00,-0.07,-0.05,0.09
10.281,0.02,-0.04,-0.05,0.07
10.291,0.00,-0.01,0.03,0.04
10.301,-0.00,-0.00,0.04,0.04
10.311,0.02,0.01,0.02,0.03
10.321,0.02,0.02,0.01,0.03
10.331,0.02,0.01,0.02,0.03
10.341,-0.02,0.00,-0.01,0.03
10.351,-0.02,-0.00,-0.02,0.03
10.361,0.02,-0.00,-0.03,0.03
10.371,-0.02,-0.01,-0.04,0.05
10.381,-0.05,-0.03,-0.11,0.12
10.391,-0.05,0.01,-0.11,0.13
10.401,-0.00,0.01,0.03,0.03
10.412,0.03,0.04,0.10,0.11
10.422,0.04,0.03,0.09,0.10
10.432,-0.00,0.03,0.00,0.03
10.442,-0.03,0.04,-0.04,0.06
10.452,0.01,0.03,-0.03,0.04
10.462,-0.00,0.03,-0.01,0.03
10.472,-0.03,0.02,-0.00,0.04
10.482,-0.03,0.00,0.01,0.04
10.492,-0.00,0.00,0.03,0.03
10.502,-0.00,-0.01,0.00,0.01
10.512,0.01,-0.04,0.01,0.05
10.522,0.02,-0.07,0.03,0.08
10.532,0.03,-0.04,0.02,0.05
10.542,0.02,-0.03,-0.00,0.03
10.552,-0.02,-0.03,-0.03,0.05
10.563,-0.02,0.01,-0.03,0.04
10.573,0.01,0.02,-0.03,0.04
10.583,0.03,0.01,-0.01,0.03
10.593,0.05,0.01,0.00,0.05
10.603,0.04,-0.00,0.01,0.05
10.613,0.01,-0.02,0.01,0.02
10.623,0.01,-0.00,-0.00,0.01
10.633,-0.01,-0.00,-0.01,0.01
10.643,-0.00,-0.00,-0.03,0.03
10.653,-0.03,-0.00,-0.02,0.03
10.663,-0.03,0.00,-0.03,0.04
10.673,-0.02,0.02,-0.03,0.04
10.683,-0.03,0.01,-0.01,0.03
10.693,0.01,0.02,0.01,0.02
10.703,0.01,0.01,0.01,0.02
10.714,-0.00,0.01,-0.00,0.01
10.724,-0.02,0.01,-0.01,0.02
10.734,0.00,0.01,-0.01,0.02
10.744,0.02,-0.02,-0.00,0.03
10.754,-0.01,-0.03,-0.02,0.04
10.764,-0.02,-0.03,-0.02,0.04
10.774,-0.00,-0.01,-0.00,0.01
10.784,0.02,-0.01,-0.00,0.03
10.794,0.02,-0.02,0.01,0.03
10.804,0.01,-0.01,0.00,0.01
10.814,-0.01,-0.00,0.00,0.01
10.824,-0.03,0.00,0.03,0.04
10.834,-0.01,0.01,0.01,0.01
10.844,0.02,0.00,-0.01,0.02
10.854,0.02,0.01,-0.03,0.03
10.865,0.01,0.01,-0.00,0.01
10.875,-0.03,0.00,-0.02,0.03
10.885,0.00,-0.00,-0.00,0.01
10.895,0.01,0.01,-0.00,0.01
10.905,-0.00,-0.01,-0.01,0.01
10.915,-0.02,0.01,-0.01,0.02
10.925,-0.02,0.01,-0.02,0.03
10.935,-0.01,0.01,-0.01,0.02
10.945,0.01,-0.01,-0.01,0.02
10.955,-0.02,-0.02,-0.02,0.03
10.965,-0.01,-0.00,0.00,0.01
10.976,-0.01,-0.01,0.01,0.01
10.986,0.00,0.01,-0.03,0.03
10.995,0.01,0.01,0.01,0.01
11.006,0.01,0.00,0.01,0.02
11.016,-0.01,0.01,-0.03,0.03
11.026,-0.04,-0.00,-0.05,0.07
11.036,-0.02,0.01,-0.05,0.06
11.046,-0.01,0.00,-0.01,0.01
11.056,0.03,-0.03,0.06,0.08
11.066,0.02,-0.04,0.10,0.11
11.076,-0.02,-0.04,0.05,0.07
11.086,0.00,-0.01,-0.05,0.05
11.096,0.01,0.00,-0.14,0.14
11.106,0.00,0.04,-0.10,0.11
11.116,-0.00,0.04,-0.02,0.04
11.126,-0.01,0.05,0.07,0.08
11.136,0.02,0.07,0.10,0.12
11.147,0.03,0.05,0.10,0.12
11.157,0.01,0.03,0.05,0.06
11.167,-0.02,-0.01,0.01,0.03
11.177,-0.06,-0.04,-0.00,0.07
11.187,-0.05,-0.07,-0.03,0.09
11.197,-0.02,-0.08,-0.04,0.09
11.207,-0.02,-0.06,-0.04,0.07
11.217,-0.01,-0.04,-0.04,0.06
11.227,0.02,-0.01,-0.02,0.03
11.237,0.05,0.01,0.03,0.06
11.247,0.06,0.04,0.04,0.08
11.257,0.03,0.02,0.02,0.04
11.267,-0.02,-0.01,0.01,0.03
11.278,-0.05,-0.01,-0.01,0.05
11.287,-0.02,0.00,-0.02,0.03
11.298,-0.02,0.02,0.02,0.03
11.308,-0.01,0.01,0.00,0.02
11.318,-0.02,-0.02,-0.10,0.10
11.328,-0.05,-0.02,-0.12,0.13
11.338,0.00,0.00,-0.02,0.02
11.348,0.02,0.03,0.09,0.10
11.358,0.04,0.01,0.10,0.11
11.368,0.01,0.01,0.02,0.02
11.378,-0.06,0.02,-0.04,0.07
11.388,-0.06,0.02,-0.06,0.08
11.398,-0.01,0.02,-0.05,0.05
11.408,-0.00,0.01,0.01,0.01
11.418,-0.02,0.01,0.02,0.03
11.428,-0.01,-0.02,0.02,0.02
11.439,0.03,-0.04,-0.00,0.05
11.446,0.01,-0.04,0.01,0.04
11.456,-0.01,-0.04,0.02,0.04
11.466,0.01,-0.04,0.03,0.05
11.476,-0.01,-0.01,0.03,0.03
11.486,-0.03,-0.01,-0.01,0.03
11.496,-0.01,0.00,-0.04,0.04
11.507,0.03,0.02,0.00,0.04
11.517,0.04,-0.00,0.02,0.04
11.527,0.04,0.00,0.02,0.04
11.537,0.03,-0.01,0.01,0.04
11.547,-0.00,0.01,-0.01,0.01
11.557,-0.01,-0.00,-0.02,0.02
11.567,-0.02,-0.02,-0.01,0.03
11.577,-0.02,-0.00,-0.01,0.02
11.587,-0.02,-0.01,-0.01,0.02
11.597,-0.01,0.00,-0.01,0.02
11.607,-0.02,0.02,-0.03,0.04
11.617,-0.03,0.02,-0.00,0.03
11.627,-0.02,0.02,-0.01,0.03
11.637,-0.00,0.01,-0.00,0.01
11.647,0.01,0.00,-0.00,0.01
11.658,0.00,0.01,0.01,0.01
11.668,0.01,0.00,0.02,0.02
11.678,0.02,-0.02,0.00,0.03
11.688,0.03,-0.02,0.01,0.03
11.698,-0.02,-0.01,-0.00,0.02
11.708,-0.01,-0.03,-0.02,0.03
11.718,0.01,-0.01,-0.01,0.02
11.728,0.03,-0.00,0.00,0.03
11.741,0.00,-0.01,0.01,0.01
11.748,-0.02,0.00,0.02,0.03
11.758,0.01,0.01,-0.01,0.02
11.768,0.03,0.01,-0.02,0.04
11.779,0.02,-0.01,-0.00,0.02
11.789,0.03,0.00,0.02,0.04
11.799,-0.00,0.01,0.01,0.02
11.811,-0.05,-0.01,0.01,0.05
11.821,-0.02,-0.01,-0.00,0.02
11.831,0.01,0.01,-0.00,0.01
11.841,0.02,0.01,-0.00,0.02
11.851,0.00,0.01,0.00,0.01
11.862,0.01,-0.00,0.02,0.02
11.872,0.01,-0.00,0.00,0.01
11.882,0.02,0.01,-0.01,0.02
11.892,0.00,-0.02,-0.01,0.03
11.902,-0.02,-0.03,-0.01,0.04
11.912,-0.05,-0.01,-0.02,0.06
11.922,-0.03,0.01,-0.01,0.03
11.932,-0.00,0.01,0.02,0.03
11.942,-0.00,-0.01,0.02,0.02
11.952,0.02,0.00,-0.02,0.03
11.962,-0.00,0.01,-0.04,0.04
11.972,-0.03,0.02,-0.01,0.04
11.982,-0.02,0.01,-0.02,0.03
11.992,0.02,-0.03,0.05,0.06
12.002,0.01,-0.06,0.10,0.12
12.013,-0.02,-0.07,0.06,0.09
12.023,-0.03,-0.04,-0.03,0.06
12.033,-0.04,-0.00,-0.11,0.12
12.043,-0.04,0.02,-0.10,0.11
12.053,-0.04,0.05,-0.03,0.07
12.063,0.03,0.06,0.03,0.07
12.073,0.07,0.07,0.09,0.14
12.083,0.07,0.06,0.09,0.13
12.093,0.00,0.01,0.06,0.06
12.103,-0.01,-0.01,0.04,0.04
12.113,-0.02,-0.04,-0.00,0.05
12.123,-0.01,-0.06,-0.03,0.06
12.133,-0.02,-0.08,-0.04,0.09
12.143,0.00,-0.08,-0.05,0.09
12.154,0.01,-0.05,-0.03,0.06
12.164,0.00,-0.04,-0.00,0.04
12.174,0.00,-0.01,0.03,0.04
12.184,0.02,0.02,0.04,0.04
12.194,0.03,0.03,0.02,0.05
12.204,0.05,0.02,0.03,0.06
12.214,-0.01,-0.01,-0.01,0.01
12.224,-0.07,-0.01,-0.02,0.07
12.234,-0.05,0.00,0.00,0.05
12.244,0.01,0.02,-0.01,0.03
12.254,0.01,0.02,-0.05,0.05
12.264,-0.04,0.00,-0.09,0.10
12.274,-0.04,-0.01,-0.07,0.08
12.284,-0.01,0.02,0.04,0.05
12.294,0.01,0.04,0.11,0.12
12.305,0.03,0.03,0.07,0.08
12.315,-0.05,0.02,0.00,0.06
12.325,-0.09,0.02,-0.05,0.11
12.335,-0.06,0.01,-0.03,0.07
12.345,-0.03,0.02,-0.01,0.03
12.355,0.01,0.04,0.03,0.05
12.365,0.01,0.03,0.04,0.05
12.375,0.06,-0.01,0.02,0.06
12.385,0.07,-0.06,-0.01,0.09
12.395,-0.01,-0.05,0.05,0.07
12.405,-0.00,-0.06,0.01,0.06
12.415,0.01,-0.04,-0.01,0.04
12.425,-0.01,-0.02,-0.04,0.04
12.435,-0.03,-0.00,-0.04,0.05
12.446,-0.01,-0.01,-0.05,0.05
12.456,0.03,0.00,0.00,0.03
12.466,0.07,0.02,0.05,0.09
12.476,0.04,0.02,0.03,0.05
12.486,0.05,0.04,-0.01,0.07
12.496,0.02,0.05,0.02,0.06
12.506,-0.02,0.03,0.01,0.04
12.516,-0.01,0.01,-0.01,0.02
12.526,-0.04,0.00,-0.02,0.04
12.536,-0.02,-0.00,-0.03,0.04
12.546,-0.02,-0.00,-0.02,0.02
12.556,-0.06,-0.01,-0.01,0.06
12.566,-0.04,-0.01,-0.04,0.06
12.576,0.00,0.01,-0.02,0.02
12.586,0.02,0.04,0.03,0.05
12.596,0.02,0.05,0.05,0.08
12.607,-0.03,0.02,0.05,0.06
12.617,-0.01,0.01,0.01,0.01
12.627,0.02,-0.00,-0.01,0.02
12.637,-0.01,-0.02,-0.00,0.02
12.647,-0.02,-0.04,-0.01,0.05
12.657,-0.00,-0.03,-0.01,0.04
12.667,-0.01,-0.02,-0.02,0.03
12.677,-0.00,-0.03,-0.00,0.03
12.687,0.00,-0.00,0.01,0.01
12.697,-0.00,0.01,-0.01,0.01
12.707,0.01,0.00,0.01,0.02
12.717,0.01,0.01,0.02,0.03
12.727,0.01,0.01,0.02,0.02
12.738,0.03,0.01,-0.01,0.03
12.748,0.05,0.00,0.00,0.05
12.758,0.07,-0.01,0.02,0.07
12.768,0.01,0.00,0.01,0.01
12.778,-0.06,0.00,-0.01,0.07
12.788,-0.05,-0.01,-0.03,0.06
12.798,-0.00,0.01,-0.01,0.02
12.808,0.03,0.01,-0.00,0.04
12.818,0.02,-0.00,0.00,0.02
12.828,-0.04,-0.02,-0.02,0.04
12.838,-0.03,-0.00,-0.02,0.04
12.848,-0.04,0.00,-0.01,0.04
12.858,-0.04,0.02,-0.00,0.05
12.868,-0.00,0.00,0.02,0.02
12.879,0.01,0.02,-0.00,0.02
12.889,0.00,0.00,-0.03,0.03
12.899,-0.04,0.00,-0.03,0.05
12.909,-0.02,0.01,-0.00,0.02
12.919,0.04,-0.00,0.05,0.06
12.929,0.04,-0.02,0.10,0.11
12.939,-0.01,-0.05,0.07,0.08
12.949,-0.02,-0.04,-0.03,0.05
12.959,-0.02,0.01,-0.11,0.11
12.969,-0.01,0.02,-0.12,0.13
12.979,-0.02,0.02,-0.06,0.07
12.989,-0.02,0.02,0.02,0.04
12.999,0.03,0.05,0.05,0.08
13.009,0.06,0.07,0.11,0.14
13.019,0.03,0.03,0.11,0.12
13.030,-0.02,0.00,0.04,0.04
13.040,-0.03,-0.01,0.00,0.03
13.050,0.00,-0.02,0.01,0.02
13.060,-0.00,-0.03,-0.02,0.04
13.070,-0.03,-0.05,-0.04,0.07
13.080,-0.03,-0.07,-0.05,0.09
13.090,-0.00,-0.03,-0.02,0.04
13.100,0.03,-0.02,-0.00,0.04
13.110,0.04,-0.02,0.02,0.05
13.120,0.03,-0.01,0.03,0.04
13.130,0.01,-0.01,0.04,0.04
13.140,-0.00,-0.00,0.01,0.01
13.150,-0.04,0.00,0.01,0.04
13.160,-0.05,0.01,-0.01,0.05
13.171,-0.01,0.02,-0.00,0.02
13.181,0.00,0.01,-0.00,0.01
13.191,-0.02,0.01,-0.09,0.09
13.201,-0.01,0.00,-0.09,0.09
13.211,0.05,-0.00,0.01,0.05
13.221,0.01,0.02,0.11,0.11
13.231,-0.01,0.00,0.09,0.09
13.241,-0.03,0.02,-0.01,0.03
13.251,-0.05,0.02,-0.05,0.07
13.261,-0.03,0.02,-0.05,0.06
13.271,-0.01,0.03,-0.01,0.03
13.281,-0.00,0.04,0.03,0.06
13.291,0.01,0.02,0.05,0.05
13.301,0.01,-0.00,0.03,0.03
13.312,0.01,-0.02,0.02,0.03
13.321,-0.00,-0.05,-0.00,0.05
13.332,-0.02,-0.05,0.00,0.05
13.342,-0.05,-0.04,0.01,0.07
13.352,-0.04,-0.04,-0.04,0.07
13.362,-0.03,-0.02,-0.05,0.06
13.372,0.01,-0.01,-0.02,0.02
13.382,0.03,-0.01,0.02,0.03
13.392,0.06,-0.01,0.03,0.07
13.402,0.06,0.01,0.01,0.06
13.412,0.05,-0.01,-0.01,0.05
13.422,0.02,0.00,-0.01,0.02
13.432,-0.02,-0.00,-0.02,0.03
13.442,-0.03,-0.01,-0.02,0.04
13.452,-0.02,0.00,-0.02,0.03
13.463,-0.02,0.02,-0.01,0.03
13.473,-0.00,0.03,0.00,0.03
13.483,-0.02,0.03,0.03,0.05
13.493,-0.01,0.01,0.01,0.02
13.503,0.01,0.03,-0.00,0.03
13.513,0.00,0.01,0.01,0.02
13.523,-0.03,0.01,0.02,0.03
13.533,-0.01,0.02,-0.01,0.02
13.543,-0.01,-0.00,0.01,0.02
13.553,-0.01,-0.02,-0.01,0.03
13.563,-0.02,-0.01,-0.01,0.03
13.573,-0.06,-0.01,-0.01,0.06
13.583,-0.02,-0.01,-0.01,0.03
13.593,0.03,-0.01,0.01,0.03
13.603,0.05,-0.01,0.01,0.05
13.614,0.06,0.01,0.01,0.06
13.624,0.02,0.01,0.00,0.03
13.634,-0.01,0.01,0.00,0.01
13.644,-0.04,-0.00,-0.02,0.04
13.654,0.02,0.00,-0.05,0.05
13.664,0.05,0.01,-0.00,0.05
13.674,0.02,0.00,0.03,0.03
13.684,-0.01,-0.00,0.01,0.02
13.694,-0.03,-0.01,-0.00,0.03
13.704,0.01,0.00,-0.03,0.03
13.714,0.07,0.03,-0.02,0.08
13.724,0.02,0.02,0.02,0.03
13.734,-0.06,0.00,0.02,0.06
13.744,-0.06,-0.02,-0.01,0.07
13.754,-0.00,-0.02,-0.02,0.03
13.765,0.04,-0.00,-0.01,0.04
13.775,0.00,0.01,-0.01,0.02
13.785,-0.06,0.01,0.01,0.06
13.795,-0.06,-0.02,0.01,0.06
13.805,0.01,-0.00,-0.03,0.03
13.815,0.02,0.02,-0.02,0.03
13.825,-0.04,-0.00,0.01,0.04
13.835,-0.04,-0.01,0.01,0.04
13.845,0.01,-0.03,0.01,0.03
13.855,0.07,-0.04,0.05,0.09
13.865,0.08,-0.04,0.11,0.14
13.875,0.01,-0.04,0.01,0.04
13.885,-0.06,-0.01,-0.08,0.10
13.895,-0.06,0.01,-0.15,0.16
13.906,-0.07,0.04,-0.09,0.12
13.916,0.01,0.04,0.01,0.04
13.926,0.05,0.05,0.07,0.10
13.936,0.07,0.05,0.11,0.13
13.946,0.03,0.03,0.10,0.11
13.956,-0.03,-0.01,0.04,0.05
13.966,-0.06,-0.02,-0.01,0.06
13.976,0.02,-0.02,-0.04,0.05
13.986,0.03,-0.02,-0.02,0.04
13.996,0.01,-0.05,-0.01,0.05
14.006,-0.04,-0.07,-0.05,0.09
14.016,-0.05,-0.04,-0.04,0.08
14.026,0.06,-0.02,0.00,0.06
14.036,0.09,0.02,0.04,0.10
14.046,0.01,-0.01,0.04,0.04
14.057,-0.03,-0.01,0.00,0.03
14.067,-0.07,0.00,-0.02,0.07
14.077,-0.04,0.02,-0.02,0.04
14.087,0.02,0.02,-0.02,0.04
14.097,0.03,0.06,0.02,0.07
14.107,-0.01,0.03,0.04,0.05
14.117,-0.05,-0.01,-0.08,0.10
14.127,-0.02,-0.00,-0.13,0.13
14.137,0.02,0.01,-0.02,0.03
14.147,0.03,0.04,0.10,0.11
14.157,0.02,0.01,0.08,0.08
14.167,-0.00,0.01,-0.01,0.01
14.177,-0.05,0.02,-0.04,0.07
14.188,-0.02,0.02,-0.04,0.05
14.197,-0.03,0.01,0.00,0.03
14.208,0.00,0.03,0.03,0.04
14.218,0.01,0.02,0.04,0.04
14.228,0.04,0.01,0.03,0.05
14.238,0.04,-0.03,0.01,0.05
14.248,-0.00,-0.04,0.01,0.04
14.258,-0.04,-0.05,0.02,0.07
14.268,-0.03,-0.04,-0.01,0.05
14.278,-0.01,-0.03,-0.02,0.04
14.288,-0.04,-0.03,-0.01,0.05
14.298,-0.05,-0.00,-0.02,0.05
14.308,-0.01,0.01,-0.01,0.02
14.318,0.04,0.01,0.03,0.05
14.328,0.03,0.02,0.02,0.05
14.339,0.08,0.00,0.02,0.08
14.349,0.08,0.00,-0.01,0.08
14.359,-0.02,0.01,0.00,0.02
14.369,-0.10,-0.02,-0.00,0.10
14.379,-0.10,-0.01,-0.03,0.10
14.389,-0.04,0.01,-0.02,0.04
14.399,0.01,0.02,-0.03,0.04
14.409,0.02,0.03,-0.00,0.03
14.419,-0.02,0.01,0.02,0.03
14.429,-0.04,0.01,0.01,0.04
14.439,-0.00,-0.02,0.01,0.02
14.449,0.04,0.01,0.02,0.04
14.459,0.04,0.01,0.02,0.05
14.469,-0.04,0.00,0.01,0.04
14.479,-0.06,-0.01,-0.00,0.06
14.490,-0.04,-0.02,-0.01,0.04
14.500,0.01,-0.00,-0.01,0.01
14.510,0.02,-0.01,-0.02,0.03
14.520,0.02,-0.02,-0.01,0.03
14.530,-0.02,-0.04,0.02,0.05
14.540,0.02,-0.02,-0.01,0.03
14.550,0.05,-0.00,0.00,0.05
14.560,0.03,0.02,0.02,0.04
14.570,-0.01,0.00,-0.01,0.01
14.580,-0.03,0.00,-0.00,0.03
14.590,0.01,0.01,-0.00,0.02
14.600,0.02,0.02,0.02,0.03
14.610,0.01,-0.01,0.01,0.02
14.621,-0.04,-0.01,-0.01,0.05
14.631,-0.03,-0.01,-0.01,0.03
14.641,0.00,-0.00,-0.03,0.03
14.651,0.02,0.02,0.00,0.03
14.661,0.02,0.02,0.02,0.04
14.671,0.02,0.00,0.00,0.02
14.681,0.00,-0.01,-0.01,0.02
14.691,-0.02,-0.04,-0.00,0.04
14.701,-0.01,0.00,-0.03,0.03
14.711,-0.00,0.01,-0.02,0.03
14.721,-0.02,0.00,0.01,0.02
14.731,0.02,0.01,0.03,0.04
14.741,0.01,0.01,-0.00,0.02
14.751,0.01,-0.00,-0.03,0.03
14.761,-0.00,0.01,-0.04,0.04
14.772,-0.00,0.00,-0.01,0.01
14.782,-0.00,-0.01,0.02,0.02
14.792,0.02,-0.04,0.08,0.09
14.802,-0.00,-0.03,0.08,0.08
14.812,-0.01,-0.03,-0.00,0.03
14.822,-0.02,-0.00,-0.10,0.11
14.832,-0.04,0.04,-0.12,0.13
14.842,-0.03,0.03,-0.06,0.08
14.852,-0.00,0.05,0.05,0.06
14.862,0.04,0.07,0.08,0.12
14.872,0.06,0.06,0.08,0.11
14.882,0.03,0.03,0.05,0.06
14.892,-0.06,-0.03,0.01,0.06
14.902,-0.05,-0.03,-0.02,0.06
14.912,0.01,-0.02,-0.03,0.04
14.923,0.02,-0.03,-0.01,0.04
14.933,-0.01,-0.05,-0.03,0.06
14.943,-0.01,-0.06,-0.05,0.08
14.953,0.03,-0.02,-0.01,0.04
14.963,0.04,0.00,0.02,0.05
14.973,0.03,0.00,0.02,0.04
14.983,0.03,-0.01,0.02,0.04
14.993,0.01,-0.01,0.01,0.02
15.003,-0.02,-0.01,-0.01,0.03
15.013,-0.02,-0.01,-0.03,0.04
15.023,-0.00,0.01,-0.02,0.02
15.033,-0.00,0.02,0.02,0.03
15.043,0.01,0.01,-0.01,0.02
15.054,-0.01,0.02,-0.10,0.10
15.064,0.00,0.03,-0.08,0.08
15.074,0.01,0.02,0.03,0.04
15.084,-0.04,0.03,0.09,0.10
15.094,-0.03,0.01,0.06,0.07
15.104,-0.00,0.01,-0.01,0.01
15.114,-0.00,0.04,-0.04,0.06
15.124,-0.04,0.01,-0.02,0.04
15.134,-0.02,0.00,-0.00,0.02
15.144,0.00,0.04,0.02,0.05
15.154,-0.01,0.04,0.03,0.05
15.164,0.02,-0.02,0.01,0.03
15.174,0.01,-0.02,-0.01,0.02
15.184,-0.02,-0.04,-0.00,0.04
15.194,-0.02,-0.04,0.03,0.06
15.204,-0.01,-0.03,0.01,0.04
15.215,-0.04,-0.03,-0.00,0.05
15.225,-0.05,-0.02,-0.04,0.07
15.235,-0.01,-0.02,-0.04,0.04
15.245,0.03,-0.01,-0.02,0.04
15.255,0.09,0.01,0.00,0.09
15.265,0.07,0.02,0.02,0.07
15.275,0.03,0.00,0.02,0.04
15.285,-0.01,0.02,-0.00,0.02
15.295,-0.02,0.01,0.01,0.02
15.305,-0.02,0.02,0.00,0.03
15.315,-0.01,0.01,-0.00,0.01
15.325,-0.01,-0.01,-0.01,0.02
15.335,-0.01,0.01,-0.03,0.03
15.346,-0.01,0.01,-0.01,0.02
15.356,-0.02,0.02,0.01,0.03
15.366,-0.00,0.03,-0.01,0.03
15.376,0.01,0.01,-0.01,0.02
15.386,0.02,0.02,0.02,0.03
15.396,-0.01,0.01,0.04,0.04
15.406,-0.03,0.00,0.00,0.03
15.416,-0.03,-0.03,-0.01,0.04
15.426,-0.02,-0.02,-0.02,0.04
15.436,0.01,-0.01,-0.01,0.01
15.447,-0.01,0.00,0.00,0.01
15.454,-0.01,-0.01,0.01,0.02
15.464,0.02,-0.02,0.00,0.02
15.474,0.03,-0.01,0.03,0.04
15.484,0.02,-0.01,0.02,0.03
15.494,0.02,-0.00,0.00,0.02
15.504,0.02,0.02,0.01,0.03
15.514,0.01,0.01,-0.01,0.02
15.524,0.02,0.01,-0.01,0.03
15.534,0.00,0.01,-0.02,0.03
15.544,0.01,0.02,-0.02,0.03
15.554,-0.01,0.03,0.01,0.03
15.564,-0.02,0.01,0.03,0.03
15.575,-0.01,-0.00,0.00,0.01
15.585,0.02,-0.01,-0.02,0.03
15.595,-0.01,-0.00,-0.03,0.03
15.605,-0.04,0.01,-0.01,0.04
15.615,-0.00,0.00,-0.02,0.02
15.625,0.01,-0.01,0.02,0.02
15.635,0.00,-0.00,0.01,0.01
15.645,-0.01,-0.00,-0.01,0.02
15.655,-0.05,0.03,-0.03,0.06
15.665,-0.03,0.02,-0.04,0.05
15.675,0.00,0.01,0.01,0.02
15.685,0.05,-0.02,0.07,0.08
15.695,0.02,-0.06,0.08,0.10
15.706,-0.01,-0.04,0.03,0.05
15.716,-0.03,-0.02,-0.04,0.05
15.726,-0.03,0.02,-0.11,0.11
15.736,0.01,0.03,-0.10,0.10
15.746,0.01,0.04,-0.01,0.04
15.756,0.01,0.06,0.09,0.11
15.766,0.01,0.06,0.09,0.10
15.776,0.02,0.05,0.07,0.08
15.786,-0.01,0.02,0.04,0.04
15.796,-0.01,-0.02,0.00,0.02
15.810,-0.02,-0.03,-0.02,0.04
15.820,-0.01,-0.05,-0.04,0.07
15.830,-0.00,-0.08,-0.04,0.09
15.840,-0.00,-0.08,-0.03,0.08
15.850,0.01,-0.04,0.00,0.04
15.860,0.02,-0.03,-0.00,0.03
15.870,-0.00,-0.01,0.01,0.02
15.880,0.00,0.00,0.02,0.02
15.890,0.01,0.02,0.03,0.04
15.901,0.01,0.02,0.01,0.03
15.911,0.01,0.02,-0.01,0.03
15.921,-0.01,-0.00,-0.01,0.02
15.931,-0.03,0.02,0.01,0.03
15.941,-0.01,0.01,0.01,0.02
15.951,-0.02,-0.01,-0.10,0.10
15.961,-0.00,0.00,-0.13,0.13
15.971,0.01,0.00,-0.02,0.02
15.981,-0.00,0.01,0.08,0.08
15.991,0.01,0.00,0.09,0.09
16.001,-0.02,-0.01,0.04,0.04
16.011,-0.03,0.01,-0.03,0.05
16.022,-0.04,0.03,-0.04,0.07
16.031,-0.02,0.04,-0.02,0.05
16.041,0.01,0.04,0.01,0.04
16.052,0.03,0.04,0.03,0.06
16.062,0.00,0.01,0.03,0.03
16.072,0.02,-0.03,0.02,0.04
16.082,0.02,-0.06,0.02,0.06
16.092,-0.00,-0.06,0.02,0.07
16.102,-0.02,-0.03,-0.01,0.04
16.112,-0.02,-0.03,-0.02,0.04
16.122,-0.05,-0.03,-0.03,0.06
16.132,-0.02,-0.01,-0.04,0.05
16.142,0.01,-0.01,-0.02,0.03
16.152,0.05,0.00,0.04,0.06
16.162,0.05,0.01,0.04,0.07
16.173,0.02,0.01,-0.00,0.03
16.183,0.02,0.01,0.00,0.02
16.193,0.02,0.01,0.01,0.03
16.203,-0.01,0.00,0.01,0.02
16.213,-0.04,0.01,-0.00,0.04
16.223,-0.03,0.01,-0.02,0.04
16.233,-0.02,0.03,-0.00,0.03
16.243,0.00,0.03,0.01,0.03
16.253,-0.04,0.01,-0.02,0.04
16.263,-0.04,0.01,-0.01,0.05
16.273,-0.02,0.01,0.00,0.02
16.283,0.04,0.01,-0.00,0.04
16.293,0.01,0.02,-0.00,0.03
16.303,-0.02,-0.02,0.00,0.03
16.313,-0.05,-0.02,-0.00,0.06
16.323,-0.04,-0.02,-0.01,0.05
16.334,-0.01,-0.00,-0.02,0.02
16.344,0.00,-0.01,-0.01,0.01
16.354,0.01,-0.01,0.00,0.02
16.364,0.02,0.00,0.02,0.03
16.374,0.03,-0.01,0.03,0.04
16.384,-0.01,0.01,0.02,0.02
16.394,-0.00,-0.00,-0.01,0.01
16.404,0.01,-0.00,-0.02,0.03
16.414,-0.00,-0.02,-0.04,0.05
16.424,0.01,0.00,-0.01,0.02
16.434,0.01,0.01,0.01,0.02
16.444,0.01,-0.00,0.03,0.04
16.454,0.02,-0.00,-0.02,0.03
16.464,0.01,-0.01,-0.01,0.02
16.475,-0.01,-0.01,0.01,0.02
16.485,-0.02,0.01,0.02,0.03
16.495,-0.00,0.01,-0.01,0.01
16.505,-0.02,0.01,0.03,0.04
16.515,0.00,-0.00,0.02,0.02
16.525,-0.01,0.01,-0.01,0.01
16.535,-0.03,0.02,-0.05,0.06
16.545,-0.05,0.01,-0.04,0.07
16.555,-0.02,0.00,-0.02,0.03
16.565,0.01,-0.02,0.01,0.02
16.575,0.02,-0.03,0.07,0.07
16.585,0.02,-0.05,0.08,0.10
16.595,-0.00,-0.03,0.01,0.03
16.605,-0.01,0.01,-0.07,0.07
16.615,-0.02,0.03,-0.08,0.09
16.626,-0.02,0.04,-0.05,0.07
16.636,-0.02,0.04,0.02,0.05
16.646,0.00,0.06,0.06,0.09
16.656,0.02,0.05,0.06,0.08
16.666,0.00,0.03,0.06,0.07
16.676,0.01,0.00,0.05,0.06
16.686,-0.02,-0.03,-0.00,0.04
16.696,-0.03,-0.05,-0.02,0.06
16.706,-0.02,-0.06,-0.02,0.07
16.716,0.02,-0.05,-0.02,0.05
16.726,0.03,-0.04,-0.03,0.06
16.736,0.02,-0.03,-0.01,0.04
16.746,0.02,-0.02,-0.02,0.04
16.756,0.03,0.00,-0.02,0.03
16.767,0.05,0.03,0.02,0.06
16.777,0.07,0.03,0.01,0.08
16.787,0.00,0.01,0.01,0.02
16.797,-0.04,0.02,0.02,0.05
16.807,-0.04,0.02,0.01,0.05
16.817,-0.01,0.01,0.01,0.02
16.827,0.00,-0.00,-0.05,0.05
16.837,-0.01,-0.01,-0.14,0.14
16.847,-0.03,-0.00,-0.09,0.09
16.857,0.00,0.02,0.04,0.05
16.867,0.05,0.02,0.11,0.13
16.877,0.02,0.01,0.07,0.07
16.887,-0.02,0.01,0.01,0.03
16.897,-0.05,0.02,-0.04,0.07
16.908,-0.03,0.03,-0.02,0.05
16.918,0.00,0.03,0.01,0.03
16.928,0.01,0.01,0.01,0.02
16.938,-0.01,-0.01,0.02,0.02
16.948,0.00,-0.01,0.02,0.02
16.958,-0.01,-0.02,0.02,0.03
16.968,-0.01,-0.04,0.02,0.05
16.978,0.01,-0.04,-0.00,0.04
16.988,0.00,-0.03,-0.00,0.03
16.998,-0.03,-0.03,-0.04,0.06
17.008,-0.04,-0.02,-0.04,0.06
17.018,0.01,0.00,-0.01,0.02
17.028,0.03,0.01,0.00,0.03
17.038,0.05,0.01,0.01,0.05
17.048,0.04,0.01,-0.01,0.04
17.059,0.03,-0.01,0.02,0.04
17.069,0.01,0.01,0.01,0.02
17.079,0.00,-0.00,0.02,0.02
17.089,-0.02,0.01,0.01,0.02
17.099,-0.01,0.01,0.00,0.01
17.109,-0.01,0.01,0.00,0.02
17.119,-0.02,0.01,0.01,0.02
17.129,-0.04,0.02,-0.01,0.05
17.139,-0.02,0.02,-0.01,0.03
17.149,0.01,0.02,0.00,0.02
17.159,0.02,0.01,-0.02,0.03
17.169,0.02,0.02,-0.01,0.03
17.179,-0.02,0.01,-0.00,0.02
17.190,-0.00,-0.01,-0.00,0.01
17.199,-0.02,-0.02,-0.00,0.03
17.210,-0.01,-0.02,0.04,0.04
17.220,-0.01,-0.02,0.04,0.05
17.230,-0.00,0.00,0.01,0.01
17.240,0.02,0.00,-0.01,0.02
17.250,0.01,0.01,-0.01,0.02
17.260,0.02,0.01,-0.00,0.02
17.270,0.01,0.01,0.01,0.01
17.280,0.03,0.01,0.01,0.03
17.290,0.04,-0.00,0.00,0.04
17.300,-0.01,-0.02,-0.01,0.03
17.310,-0.02,-0.01,-0.03,0.03
17.320,-0.01,-0.00,-0.02,0.03
17.330,0.00,0.01,-0.02,0.02
17.341,-0.00,0.00,0.02,0.02
17.351,-0.04,-0.01,0.02,0.04
17.361,-0.02,0.01,-0.02,0.03
17.371,-0.01,-0.00,-0.01,0.02
17.381,-0.00,-0.01,-0.01,0.01
17.391,-0.00,0.01,-0.02,0.03
17.401,0.03,0.02,0.04,0.05
17.411,0.04,-0.00,0.08,0.09
17.421,-0.01,-0.02,0.05,0.05
17.431,-0.03,-0.01,-0.02,0.04
17.441,-0.03,0.02,-0.10,0.10
17.451,-0.01,0.03,-0.08,0.09
17.461,0.00,0.03,-0.05,0.06
17.471,0.00,0.03,0.02,0.03
17.482,0.00,0.03,0.05,0.06
17.492,0.02,0.01,0.07,0.07
17.502,-0.01,-0.01,0.06,0.06
17.512,-0.04,-0.02,0.02,0.04
17.522,-0.01,-0.02,0.02,0.04
17.532,0.01,-0.04,0.02,0.05
17.542,0.02,-0.04,0.01,0.05
17.552,0.00,-0.06,-0.03,0.07
17.562,0.03,-0.04,-0.04,0.07
17.572,0.06,-0.03,-0.02,0.07
17.582,0.03,-0.02,-0.00,0.04
17.592,0.03,-0.00,-0.00,0.03
17.602,0.02,-0.01,0.00,0.02
17.612,-0.00,0.00,0.00,0.00
17.622,-0.02,0.02,-0.01,0.03
17.632,-0.04,0.03,0.01,0.05
17.643,-0.01,0.04,0.04,0.06
17.653,0.03,0.05,0.03,0.07
17.663,-0.00,0.02,-0.05,0.06
17.673,-0.05,0.03,-0.12,0.14
17.683,-0.03,0.05,-0.04,0.06
17.693,0.03,0.01,0.06,0.07
17.703,0.03,0.00,0.07,0.08
17.713,-0.02,-0.02,0.00,0.02
17.723,-0.05,0.01,-0.04,0.06
17.733,-0.02,0.03,-0.04,0.05
17.743,-0.03,0.04,-0.00,0.05
17.753,-0.03,0.03,0.01,0.04
17.763,0.00,0.02,0.03,0.03
17.773,0.04,0.01,0.03,0.06
17.784,0.07,-0.01,0.03,0.07
17.794,0.03,-0.03,0.05,0.07
17.804,-0.03,-0.06,0.02,0.07
17.814,-0.03,-0.05,0.01,0.06
17.824,-0.00,-0.02,-0.03,0.04
17.834,-0.01,-0.00,-0.05,0.05
17.844,-0.00,-0.01,-0.05,0.05
17.854,0.03,-0.01,-0.02,0.03
17.864,0.07,-0.00,0.02,0.08
17.874,0.06,0.01,0.01,0.06
17.884,-0.00,0.00,-0.01,0.01
17.894,-0.01,0.02,0.00,0.02
17.904,-0.00,0.03,0.03,0.04
17.914,0.01,0.02,0.02,0.03
17.924,-0.04,0.00,-0.00,0.04
17.935,-0.05,0.00,0.00,0.05
17.945,-0.02,0.01,0.01,0.02
17.955,0.01,-0.00,-0.02,0.02
17.965,0.00,-0.00,-0.04,0.04
17.975,-0.01,-0.01,-0.02,0.03
17.985,-0.03,0.00,0.00,0.03
17.995,-0.01,0.01,-0.00,0.02
18.005,-0.00,0.01,0.01,0.01
18.015,-0.00,0.01,0.00,0.02
18.025,-0.02,0.01,0.01,0.02
18.035,-0.01,0.00,0.01,0.02
18.045,0.02,-0.01,0.04,0.05
18.055,0.03,-0.02,0.04,0.05
18.065,-0.00,-0.02,-0.04,0.04
18.076,0.02,-0.03,-0.02,0.04
18.086,0.01,-0.01,0.00,0.01
18.096,0.00,-0.01,-0.00,0.01
18.106,0.02,-0.00,-0.02,0.03
18.116,0.01,-0.01,-0.02,0.02
18.126,0.02,-0.01,-0.02,0.03
18.136,-0.01,0.00,-0.02,0.02
18.146,-0.02,0.01,-0.02,0.03
18.156,0.01,0.00,-0.01,0.02
18.166,0.02,0.01,0.00,0.02
18.176,0.03,0.01,0.00,0.04
18.186,-0.01,0.00,-0.03,0.03
18.196,-0.05,-0.01,-0.02,0.05
18.206,-0.04,0.00,-0.02,0.04
18.217,-0.02,0.01,-0.01,0.02
18.227,0.02,-0.00,0.03,0.04
18.237,0.01,-0.01,0.06,0.06
18.247,-0.02,-0.00,0.04,0.05
18.257,-0.03,0.01,-0.01,0.04
18.267,0.00,0.03,-0.08,0.09
18.277,0.03,0.03,-0.07,0.08
18.287,-0.00,0.03,-0.00,0.03
18.297,-0.03,0.02,0.03,0.05
18.307,-0.01,0.04,0.06,0.07
18.317,0.02,0.01,0.08,0.08
18.327,0.02,0.00,0.06,0.06
18.337,-0.01,-0.02,0.01,0.02
18.347,-0.01,-0.04,-0.02,0.04
18.357,0.01,-0.03,-0.01,0.03
18.368,0.03,-0.04,0.00,0.04
18.378,0.02,-0.05,-0.01,0.06
18.388,0.02,-0.04,-0.00,0.04
18.398,0.04,-0.03,0.01,0.05
18.408,0.06,-0.00,0.00,0.06
18.418,0.04,0.00,-0.01,0.04
18.428,0.01,-0.01,-0.01,0.02
18.438,-0.00,0.01,-0.02,0.02
18.448,-0.03,0.03,-0.00,0.04
18.458,-0.03,0.02,-0.00,0.04
18.468,-0.02,0.04,0.02,0.05
18.478,0.01,0.02,0.04,0.04
18.488,0.01,0.01,-0.06,0.07
18.499,-0.04,0.02,-0.12,0.13
18.509,-0.02,0.03,-0.02,0.04
18.519,0.02,0.02,0.08,0.09
18.529,0.03,0.01,0.07,0.08
18.539,-0.03,-0.00,-0.01,0.04
18.549,-0.06,0.01,-0.04,0.07
18.559,-0.02,0.01,-0.04,0.04
18.569,-0.01,0.02,-0.02,0.02
18.579,-0.01,0.03,0.02,0.04
18.589,0.01,0.02,0.04,0.04
18.599,0.03,-0.00,0.05,0.06
18.609,-0.00,-0.04,0.01,0.04
18.619,-0.02,-0.06,0.01,0.06
18.629,0.01,-0.03,0.00,0.03
18.639,0.03,-0.01,0.01,0.03
18.650,0.01,-0.01,-0.01,0.01
18.660,-0.01,-0.04,-0.05,0.06
18.670,-0.02,-0.00,-0.04,0.04
18.680,0.04,0.02,0.00,0.04
18.690,0.07,0.01,0.02,0.07
18.700,0.06,0.01,-0.02,0.06
18.710,0.01,0.00,-0.02,0.02
18.720,-0.03,-0.01,0.01,0.03
18.730,-0.03,-0.00,-0.00,0.03
18.740,-0.04,0.01,-0.01,0.04
18.750,-0.01,0.01,-0.01,0.02
18.760,-0.00,0.02,0.02,0.02
18.770,-0.01,0.02,0.02,0.03
18.780,0.00,0.01,-0.02,0.02
18.790,-0.02,0.01,-0.02,0.03
18.801,-0.01,0.00,-0.01,0.01
18.811,-0.02,0.00,-0.01,0.02
18.821,-0.03,0.00,0.01,0.04
18.831,-0.04,0.01,0.01,0.04
18.841,-0.02,-0.00,-0.01,0.02
18.851,-0.00,0.00,-0.00,0.01
18.861,-0.01,0.01,0.01,0.02
18.871,-0.00,-0.02,0.00,0.02
18.881,-0.01,-0.02,-0.01,0.02
18.891,0.01,-0.00,0.04,0.04
18.901,0.01,-0.02,0.04,0.05
18.911,0.01,-0.01,0.02,0.03
18.921,-0.01,-0.01,-0.01,0.02
18.931,-0.00,-0.01,-0.05,0.05
18.942,0.03,-0.00,-0.02,0.04
18.952,0.04,0.00,0.01,0.04
18.962,0.01,0.01,0.00,0.02
18.972,0.02,-0.00,0.01,0.03
18.982,0.02,-0.00,0.00,0.02
18.992,-0.01,0.00,-0.02,0.02
19.002,-0.01,0.02,-0.02,0.03
19.012,0.00,0.02,0.01,0.02
19.022,-0.00,0.00,0.01,0.01
19.032,-0.03,-0.01,-0.01,0.04
19.042,-0.04,-0.01,-0.04,0.06
19.052,-0.06,-0.01,-0.03,0.07
19.062,-0.00,0.02,-0.03,0.03
19.072,0.05,0.01,0.03,0.06
19.083,0.04,-0.00,0.09,0.10
19.093,0.00,-0.00,0.09,0.09
19.103,-0.02,0.01,0.01,0.03
19.113,-0.01,0.03,-0.09,0.09
19.123,-0.03,0.02,-0.12,0.12
19.133,-0.02,-0.01,-0.05,0.06
19.143,-0.03,0.00,0.00,0.03
19.153,0.02,0.03,0.05,0.06
19.163,0.05,0.03,0.07,0.09
19.173,0.03,-0.00,0.05,0.06
19.183,-0.01,-0.03,0.02,0.04
19.193,-0.01,-0.03,0.01,0.03
19.203,0.02,-0.01,-0.01,0.02
19.213,0.03,-0.03,-0.02,0.04
19.223,0.01,-0.05,-0.03,0.06
19.233,-0.01,-0.05,-0.02,0.06
19.244,0.02,-0.02,-0.03,0.05
19.254,0.03,-0.01,0.01,0.03
19.264,0.00,-0.01,0.02,0.03
19.274,-0.01,0.00,-0.01,0.02
19.284,-0.00,0.01,-0.00,0.02
19.294,-0.00,0.03,-0.01,0.03
19.304,-0.03,0.03,0.00,0.04
19.314,-0.02,0.02,0.00,0.03
19.324,-0.00,0.04,0.02,0.05
19.334,0.02,0.03,-0.01,0.04
19.344,0.01,0.01,-0.10,0.10
19.354,-0.05,0.02,-0.13,0.14
19.364,-0.05,0.01,-0.00,0.05
19.375,-0.02,-0.00,0.11,0.11
19.385,0.01,-0.02,0.07,0.07
19.395,-0.01,-0.01,-0.01,0.02
19.405,-0.03,0.03,-0.03,0.05
19.415,-0.03,0.02,-0.03,0.04
19.425,-0.01,0.02,-0.02,0.03
19.435,0.02,0.02,-0.02,0.03
19.445,0.01,0.00,0.02,0.03
19.451,0.04,-0.01,0.03,0.05
19.461,0.01,-0.05,0.02,0.05
19.471,0.02,-0.05,0.02,0.05
19.482,0.02,-0.02,0.01,0.03
19.492,0.01,-0.03,-0.00,0.04
19.502,0.01,-0.02,-0.02,0.03
19.512,-0.01,-0.03,-0.08,0.08
19.522,0.01,-0.01,-0.02,0.03
19.532,0.06,0.02,0.02,0.06
19.542,0.06,0.02,0.03,0.07
19.552,0.02,0.00,-0.00,0.02
19.562,-0.01,0.01,-0.03,0.03
19.572,-0.03,0.00,0.02,0.03
19.582,-0.02,-0.01,0.02,0.03
19.592,-0.02,0.01,-0.01,0.02
19.602,-0.03,0.00,0.00,0.04
19.612,-0.00,0.01,0.00,0.01
19.622,-0.01,0.01,-0.01,0.01
19.633,-0.04,0.02,-0.00,0.04
19.643,-0.02,0.02,-0.03,0.04
19.653,-0.00,0.02,-0.02,0.02
19.663,-0.01,-0.01,0.00,0.02
19.673,0.00,0.01,-0.01,0.01
19.683,0.01,0.01,-0.00,0.01
19.693,0.02,-0.00,0.01,0.02
19.703,-0.01,-0.02,0.00,0.02
19.713,-0.03,-0.03,0.01,0.05
19.723,-0.01,-0.02,-0.01,0.02
19.733,0.02,-0.01,0.00,0.02
19.743,0.03,-0.01,0.00,0.03
19.753,0.04,-0.02,-0.01,0.05
19.763,0.03,-0.02,-0.00,0.03
19.774,0.02,-0.02,-0.00,0.02
19.784,0.02,-0.01,0.01,0.02
19.794,0.03,-0.00,0.01,0.03
19.804,-0.00,-0.00,-0.01,0.01
19.814,-0.01,0.01,-0.05,0.05
19.826,-0.00,0.02,-0.02,0.03
19.836,0.04,0.02,0.01,0.04
19.846,-0.01,0.01,0.04,0.04
19.857,0.00,0.00,0.02,0.03
19.867,-0.01,-0.00,-0.00,0.01
19.877,-0.04,0.01,-0.02,0.04
19.887,-0.01,0.01,-0.02,0.03
19.897,-0.01,0.00,-0.01,0.02
19.907,-0.04,-0.01,0.00,0.04
19.917,-0.02,-0.02,0.01,0.03
19.927,0.01,-0.02,0.01,0.02
19.937,0.02,0.00,0.02,0.02
19.947,0.02,0.02,-0.01,0.03
19.957,-0.00,0.04,-0.03,0.05
19.967,0.00,0.02,-0.00,0.02
19.977,-0.00,-0.00,0.02,0.02
19.987,0.00,-0.00,-0.02,0.02
19.998,0.00,-0.00,-0.03,0.04
20.008,-0.06,-0.02,-0.04,0.07
20.018,-0.07,-0.02,-0.03,0.07
20.028,-0.01,0.01,-0.01,0.02
20.038,0.04,-0.00,0.06,0.07
20.048,0.01,-0.02,0.09,0.09
20.058,-0.00,-0.02,0.03,0.04
20.068,-0.00,0.03,-0.08,0.09
20.078,-0.01,0.03,-0.11,0.12
20.088,-0.03,0.01,-0.04,0.05
20.098,-0.01,0.02,0.00,0.02
20.108,0.00,0.03,0.05,0.06
20.118,0.04,0.01,0.07,0.08
20.128,0.02,0.03,0.07,0.08
20.138,-0.00,0.00,0.05,0.05
20.149,-0.01,-0.02,0.02,0.03
20.159,-0.01,-0.06,-0.01,0.06
20.169,0.00,-0.04,-0.02,0.05
20.179,0.02,-0.04,-0.03,0.05
20.189,0.04,0.00,0.02,0.04
20.199,0.05,-0.03,-0.04,0.07
20.209,-0.02,-0.03,-0.02,0.04
20.219,-0.05,-0.01,0.01,0.05
20.229,-0.01,-0.01,0.01,0.02
20.239,0.02,0.01,-0.01,0.03
20.249,-0.01,0.03,-0.02,0.04
20.259,-0.02,0.02,-0.01,0.03
20.269,-0.02,0.03,-0.00,0.04
20.279,0.03,0.05,0.01,0.06
20.289,0.06,0.04,0.02,0.07
20.300,0.01,-0.00,-0.06,0.06
20.310,-0.08,0.01,-0.14,0.16
20.320,-0.09,0.03,-0.07,0.12
20.330,-0.03,-0.00,0.07,0.07
20.340,0.01,-0.01,0.09,0.09
20.350,-0.01,-0.01,0.02,0.03
20.360,-0.04,0.02,-0.02,0.04
20.370,-0.03,0.03,-0.02,0.04
20.380,0.00,0.04,-0.01,0.04
20.390,0.02,0.02,0.00,0.03
20.400,0.00,0.02,0.00,0.02
20.410,0.01,0.00,0.02,0.02
20.420,-0.01,-0.03,0.03,0.04
20.431,-0.01,-0.04,0.02,0.04
20.441,-0.00,-0.04,0.04,0.06
20.451,-0.01,-0.03,0.04,0.05
20.461,0.02,-0.03,-0.01,0.04
20.471,0.04,-0.01,-0.07,0.08
20.481,0.03,-0.01,-0.05,0.05
20.491,0.03,0.02,0.01,0.04
20.501,0.06,0.04,0.03,0.08
20.511,0.05,0.01,-0.00,0.05
20.521,0.04,0.01,-0.04,0.05
20.531,-0.00,-0.01,-0.02,0.03
20.541,-0.02,-0.02,-0.01,0.03
20.551,-0.01,-0.02,0.01,0.02
20.562,-0.03,-0.02,0.00,0.04
20.571,-0.02,0.00,-0.01,0.02
20.582,-0.00,0.02,-0.02,0.03
20.592,-0.00,0.04,0.00,0.04
20.602,-0.00,0.05,-0.00,0.05
20.612,0.00,0.03,-0.01,0.04
20.622,0.01,0.03,-0.01,0.03
20.632,-0.00,0.01,0.01,0.01
20.642,-0.02,0.01,-0.01,0.03
20.652,-0.03,0.00,0.01,0.03
20.662,-0.02,-0.01,-0.02,0.03
20.672,-0.03,-0.03,-0.02,0.04
20.682,-0.01,-0.02,0.00,0.03
20.692,0.01,-0.02,-0.01,0.03
20.702,0.01,-0.01,0.02,0.03
20.712,0.03,-0.00,0.01,0.03
20.722,-0.01,-0.02,0.00,0.02
20.733,-0.01,-0.01,-0.01,0.02
20.743,0.03,0.01,-0.01,0.03
20.753,0.05,0.01,-0.02,0.05
20.763,0.04,0.00,0.01,0.04
20.773,0.03,-0.01,0.01,0.03
20.783,0.02,-0.01,-0.00,0.03
20.793,-0.02,-0.00,-0.02,0.03
20.803,-0.04,0.02,-0.02,0.05
20.813,-0.00,0.02,-0.01,0.03
20.823,-0.00,0.01,0.01,0.02
20.833,-0.02,0.02,0.02,0.03
20.843,0.03,0.02,0.01,0.04
20.853,0.04,0.02,0.00,0.04
20.863,-0.01,0.01,0.01,0.02
20.874,-0.02,-0.03,-0.01,0.03
20.884,-0.01,-0.03,-0.02,0.03
20.894,0.03,-0.02,-0.01,0.03
20.904,0.01,-0.02,-0.01,0.03
20.914,-0.02,-0.02,-0.05,0.06
20.924,-0.02,0.01,-0.02,0.03
20.934,0.01,0.00,-0.00,0.01
20.944,0.05,-0.01,0.02,0.05
20.954,0.04,0.00,-0.00,0.04
20.964,-0.02,-0.02,-0.03,0.04
20.974,-0.05,-0.01,-0.03,0.06
20.984,-0.03,0.00,-0.00,0.03
20.994,-0.00,0.01,0.01,0.01
21.004,-0.01,-0.01,0.05,0.05
21.015,-0.01,-0.03,0.06,0.07
21.025,0.02,0.02,0.00,0.03
21.035,0.02,0.04,-0.06,0.07
21.045,0.01,0.02,-0.06,0.06
21.055,-0.02,0.01,-0.04,0.04
21.065,-0.00,0.01,0.00,0.01
21.075,0.03,0.01,0.03,0.05
21.085,0.02,-0.00,0.08,0.08
21.095,-0.02,-0.03,0.03,0.05
21.105,-0.00,-0.06,-0.01,0.06
21.115,0.00,-0.02,-0.01,0.03
21.125,0.00,-0.02,0.02,0.02
21.135,0.02,-0.01,-0.02,0.03
21.145,0.02,-0.00,-0.02,0.03
21.156,0.02,-0.03,-0.03,0.05
21.166,-0.02,-0.05,-0.00,0.05
21.176,-0.01,-0.02,0.01,0.02
21.186,0.03,-0.03,-0.01,0.05
21.196,0.01,-0.04,0.01,0.04
21.206,0.02,0.00,0.02,0.03
21.216,0.03,0.02,-0.00,0.04
21.226,-0.00,0.02,-0.01,0.03
21.236,-0.03,0.04,0.02,0.05
21.246,-0.04,0.06,0.01,0.07
21.256,-0.01,0.04,0.01,0.04
21.266,0.02,-0.01,-0.07,0.07
21.276,-0.00,-0.01,-0.13,0.13
21.286,-0.01,0.01,-0.04,0.04
21.297,0.01,-0.01,0.09,0.09
21.307,0.02,-0.02,0.09,0.09
21.317,0.01,-0.01,0.01,0.02
21.327,-0.01,0.03,-0.04,0.05
21.337,-0.03,0.02,-0.01,0.04
21.347,-0.03,0.02,-0.01,0.03
21.357,-0.01,0.03,0.01,0.03
21.367,0.01,0.01,0.02,0.02
21.377,0.02,0.01,0.03,0.04
21.387,0.03,-0.02,0.02,0.04
21.397,0.06,-0.05,0.02,0.08
21.407,0.09,-0.03,0.02,0.10
21.417,0.05,-0.02,0.02,0.06
21.427,-0.03,-0.04,-0.04,0.07
21.437,-0.08,-0.03,-0.09,0.12
21.447,-0.02,0.01,-0.05,0.05
21.458,0.05,0.03,0.02,0.06
21.468,0.09,0.03,0.02,0.09
21.478,0.04,0.04,0.03,0.06
21.488,0.00,0.01,-0.00,0.01
21.498,-0.01,0.01,0.03,0.03
21.508,-0.04,0.00,0.01,0.04
21.518,-0.05,0.02,-0.01,0.05
21.528,-0.01,-0.00,-0.01,0.02
21.538,0.01,-0.00,-0.02,0.02
21.548,0.01,0.00,-0.02,0.02
21.558,-0.02,0.00,-0.02,0.03
21.568,-0.01,-0.00,-0.00,0.01
21.578,-0.01,0.01,0.02,0.02
21.588,0.02,0.02,-0.01,0.03
21.599,0.02,0.02,0.02,0.03
21.609,-0.01,0.01,0.01,0.02
21.619,-0.00,0.01,0.02,0.02
21.629,-0.01,-0.01,-0.00,0.01
21.639,0.00,-0.00,-0.02,0.02
21.649,0.01,-0.01,-0.02,0.02
21.659,0.01,-0.03,0.02,0.03
21.669,0.01,-0.03,0.01,0.03
21.679,0.02,-0.02,-0.02,0.03
21.689,0.01,-0.01,-0.02,0.03
21.699,-0.00,-0.02,-0.00,0.02
21.709,0.04,-0.01,0.01,0.04
21.719,0.04,-0.01,0.03,0.05
21.730,-0.00,0.00,0.03,0.03
21.740,-0.05,0.01,-0.04,0.07
21.750,-0.03,0.01,-0.04,0.05
21.760,0.00,0.01,0.02,0.03
21.770,0.02,0.01,0.01,0.02
21.780,0.01,0.01,-0.02,0.03
21.790,0.01,-0.01,-0.01,0.02
21.800,0.00,-0.03,-0.01,0.03
21.810,-0.03,-0.01,-0.02,0.04
21.820,-0.01,0.00,-0.04,0.04
21.830,0.01,0.01,0.01,0.01
21.840,0.00,-0.02,0.02,0.03
21.850,-0.03,0.00,-0.02,0.04
21.861,-0.02,0.02,-0.04,0.05
21.870,-0.00,0.02,-0.01,0.02
21.881,0.01,0.01,0.03,0.04
21.891,0.01,-0.01,0.03,0.04
21.901,-0.00,-0.02,0.06,0.06
21.911,-0.01,-0.03,0.02,0.04
21.921,-0.02,-0.02,-0.04,0.05
21.931,-0.02,0.00,-0.11,0.11
21.941,-0.00,0.02,-0.09,0.09
21.951,-0.02,-0.00,-0.03,0.03
21.961,0.00,0.01,0.06,0.06
21.971,0.02,0.00,0.08,0.09
21.981,0.04,0.03,0.06,0.08
21.991,0.05,0.00,0.06,0.08
22.001,0.03,-0.02,0.04,0.05
22.011,0.01,-0.03,0.02,0.03
22.021,0.01,-0.03,-0.00,0.03
22.032,0.04,-0.03,-0.01,0.05
22.042,0.02,-0.05,-0.02,0.05
22.052,-0.01,-0.05,-0.01,0.05
22.062,0.00,-0.03,-0.01,0.03
22.072,0.01,-0.01,-0.01,0.02
22.082,0.02,-0.01,0.00,0.02
22.092,0.01,0.01,-0.00,0.01
22.102,0.00,0.02,0.02,0.02
22.112,-0.01,0.03,0.02,0.04
22.122,-0.00,0.02,0.01,0.02
22.132,-0.00,0.04,0.01,0.04
22.142,-0.00,0.03,0.03,0.04
22.152,0.01,0.04,0.03,0.05
22.162,-0.02,0.01,-0.07,0.07
22.172,-0.07,0.01,-0.14,0.15
22.183,-0.03,-0.01,-0.05,0.06
22.193,-0.00,-0.02,0.09,0.09
22.203,0.04,-0.01,0.07,0.08
22.213,0.01,-0.03,-0.00,0.03
22.223,-0.02,0.00,-0.02,0.02
22.233,-0.05,0.02,-0.04,0.07
22.243,-0.02,0.02,-0.04,0.04
22.253,0.01,0.01,-0.02,0.03
22.263,0.04,0.01,0.00,0.04
22.273,0.05,0.00,0.04,0.07
22.283,0.03,-0.04,0.04,0.07
22.293,-0.01,-0.04,0.03,0.05
22.303,-0.00,-0.03,0.02,0.04
22.314,-0.01,-0.03,-0.02,0.03
22.324,-0.03,-0.01,-0.05,0.06
22.334,-0.02,-0.02,-0.07,0.08
22.344,-0.02,-0.02,-0.05,0.06
22.354,0.03,0.01,0.00,0.03
22.364,0.06,0.02,0.05,0.08
22.374,0.05,0.01,0.03,0.06
22.384,0.04,0.00,0.01,0.04
22.394,-0.01,-0.00,-0.00,0.01
22.404,-0.06,-0.00,-0.03,0.06
22.414,-0.06,-0.01,-0.01,0.06
22.424,-0.06,0.00,-0.02,0.06
22.434,-0.02,-0.00,-0.02,0.03
22.445,0.02,0.01,-0.00,0.02
22.454,-0.00,0.02,-0.00,0.02
22.464,-0.00,0.01,-0.01,0.01
22.475,-0.01,-0.01,0.00,0.01
22.485,0.01,0.00,-0.00,0.01
22.495,0.04,-0.01,0.01,0.04
22.505,-0.01,0.01,0.01,0.02
22.515,-0.06,0.01,-0.02,0.07
22.525,-0.05,-0.01,-0.02,0.06
22.535,-0.01,-0.01,-0.01,0.02
22.545,0.04,0.00,0.02,0.05
22.555,0.06,0.01,0.03,0.07
22.565,0.02,-0.01,0.02,0.03
22.575,-0.00,-0.01,-0.01,0.01
22.585,-0.02,-0.01,-0.00,0.02
22.595,0.02,-0.01,-0.00,0.02
22.606,0.02,0.02,-0.00,0.03
22.616,0.03,0.01,0.01,0.03
22.626,0.03,-0.01,0.05,0.06
22.636,-0.00,0.01,0.04,0.04
22.646,0.00,-0.00,-0.03,0.03
22.656,-0.00,0.00,-0.04,0.04
22.666,0.02,-0.01,-0.00,0.02
22.676,0.01,-0.02,-0.01,0.02
22.686,0.01,-0.02,-0.00,0.02
22.696,-0.00,-0.01,0.00,0.01
22.706,-0.03,0.00,0.00,0.03
22.716,-0.03,0.01,-0.01,0.03
22.726,0.05,0.02,-0.00,0.06
22.736,0.13,-0.01,-0.01,0.13
22.746,-0.09,-0.02,0.09,0.13
22.757,-0.17,-0.06,-0.06,0.19
22.767,-0.05,0.01,-0.07,0.09
22.777,0.05,0.04,0.01,0.06
22.787,0.06,0.03,0.04,0.08
22.797,0.01,-0.02,0.06,0.07
22.807,-0.04,-0.05,0.04,0.08
22.817,-0.02,-0.02,-0.01,0.03
22.827,0.00,0.00,-0.06,0.06
22.837,-0.02,0.02,-0.08,0.08
22.847,-0.02,0.01,-0.06,0.06
22.857,-0.01,0.00,0.01,0.01
22.867,-0.01,0.01,0.07,0.07
22.878,0.02,0.01,0.05,0.06
22.887,0.04,0.00,0.04,0.06
22.898,0.03,-0.01,0.05,0.06
22.908,0.01,-0.03,0.02,0.04
22.918,-0.01,-0.02,-0.00,0.02
22.928,-0.02,-0.02,-0.01,0.03
22.938,-0.03,-0.02,-0.02,0.04
22.948,0.01,-0.02,-0.02,0.03
22.958,0.01,-0.01,-0.02,0.03
22.968,0.01,0.00,-0.01,0.02
22.978,0.02,-0.01,-0.00,0.02
22.988,0.05,0.01,-0.01,0.05
22.998,0.02,0.02,0.02,0.03
23.008,0.01,0.01,0.00,0.02
23.018,-0.01,0.02,-0.01,0.02
23.028,-0.05,0.02,-0.01,0.05
23.038,-0.08,0.03,-0.01,0.08
23.049,-0.08,0.03,-0.01,0.08
23.059,-0.06,-0.00,-0.07,0.09
23.069,-0.01,0.03,-0.13,0.13
23.079,0.03,0.04,-0.01,0.05
23.089,0.06,0.02,0.15,0.16
23.099,-0.00,0.01,0.13,0.13
23.109,-0.06,0.00,-0.00,0.06
23.119,-0.02,0.04,-0.05,0.07
23.129,-0.01,0.05,-0.03,0.06
23.139,0.02,0.02,-0.03,0.04
23.149,-0.00,-0.01,-0.04,0.05
23.159,0.03,-0.02,-0.00,0.04
23.169,0.07,-0.04,0.03,0.08
23.179,0.04,-0.05,0.05,0.09
23.190,-0.02,-0.04,0.04,0.06
23.200,-0.02,-0.02,0.02,0.04
23.210,-0.01,-0.01,-0.00,0.01
23.220,-0.01,-0.00,-0.02,0.02
23.230,-0.02,-0.02,-0.04,0.05
23.240,-0.02,-0.04,-0.05,0.07
23.250,0.02,-0.02,-0.00,0.03
23.260,0.06,0.02,0.04,0.08
23.270,0.07,0.02,0.03,0.07
23.280,0.03,0.01,-0.01,0.04
23.290,0.03,0.00,-0.03,0.04
23.300,-0.01,0.00,0.01,0.02
23.310,-0.04,0.01,0.00,0.04
23.320,-0.05,0.01,0.00,0.05
23.331,-0.05,-0.01,-0.02,0.05
23.341,-0.01,0.02,-0.03,0.03
23.351,-0.01,0.02,-0.02,0.03
23.361,-0.03,0.02,-0.02,0.04
23.371,-0.02,-0.01,-0.03,0.04
23.381,0.01,0.01,-0.01,0.01
23.391,-0.03,-0.00,0.01,0.03
23.401,-0.02,0.01,0.00,0.02
23.411,-0.02,-0.00,0.01,0.02
23.421,-0.02,0.01,-0.00,0.02
23.431,0.01,-0.00,0.01,0.01
23.441,-0.00,-0.02,-0.01,0.02
23.449,0.01,-0.00,-0.01,0.02
23.459,0.00,-0.02,-0.00,0.02
23.469,0.02,-0.02,-0.02,0.04
23.479,0.00,-0.01,0.00,0.01
23.489,0.00,-0.03,0.01,0.03
23.499,0.02,-0.02,-0.01,0.03
23.509,-0.00,0.00,0.02,0.02
23.519,0.01,0.00,0.04,0.04
23.529,0.00,0.03,-0.00,0.03
23.539,-0.02,0.02,-0.03,0.04
23.550,-0.02,0.02,-0.01,0.03
23.560,-0.01,0.01,0.01,0.02
23.570,-0.00,0.01,0.02,0.03
23.580,0.00,-0.02,0.02,0.03
23.590,-0.01,-0.00,-0.01,0.02
23.600,-0.03,-0.00,-0.01,0.03
23.610,0.02,0.01,0.00,0.02
23.620,-0.00,-0.01,0.01,0.02
23.630,-0.01,-0.02,-0.03,0.04
23.640,-0.03,-0.02,-0.05,0.06
23.650,-0.01,0.01,-0.01,0.02
23.660,0.02,0.04,0.01,0.04
23.670,0.03,0.02,0.00,0.04
23.680,0.01,0.01,0.05,0.05
23.691,-0.02,-0.01,0.07,0.08
23.701,-0.00,-0.01,0.03,0.03
23.711,-0.01,0.01,-0.04,0.05
23.721,0.01,0.01,-0.08,0.08
23.731,-0.02,0.01,-0.07,0.08
23.741,-0.05,0.02,0.00,0.05
23.751,-0.00,-0.00,0.03,0.03
23.761,0.05,0.03,0.04,0.07
23.771,0.05,0.02,0.09,0.11
23.781,0.05,-0.01,0.05,0.07
23.791,0.02,-0.02,0.01,0.03
23.801,-0.01,-0.02,0.01,0.02
23.812,-0.01,-0.03,-0.00,0.03
23.822,0.01,-0.05,-0.00,0.05
23.832,-0.01,-0.05,-0.03,0.06
23.842,-0.02,-0.03,-0.04,0.05
23.852,-0.01,-0.01,-0.02,0.03
23.862,0.03,0.01,-0.00,0.03
23.872,0.06,0.01,-0.02,0.07
23.882,-0.01,0.02,-0.02,0.03
23.892,-0.03,0.01,-0.02,0.04
23.902,-0.03,0.01,-0.01,0.03
23.912,-0.01,0.02,0.01,0.02
23.922,-0.00,0.04,0.02,0.04
23.932,-0.02,0.03,0.02,0.04
23.942,-0.01,0.00,-0.03,0.03
23.952,0.00,0.00,-0.12,0.12
23.963,-0.04,0.04,-0.09,0.10
23.972,0.02,0.01,0.06,0.06
23.983,0.03,-0.00,0.10,0.11
23.993,0.00,-0.00,0.02,0.02
24.003,-0.04,0.01,-0.02,0.05
24.013,-0.03,0.02,-0.03,0.04
24.023,-0.03,0.01,-0.02,0.03
24.033,-0.03,-0.01,-0.03,0.04
24.043,0.00,-0.01,-0.01,0.02
24.053,0.05,-0.01,0.03,0.06
24.063,0.04,-0.03,0.05,0.07
24.073,0.01,-0.03,0.05,0.05
24.083,0.00,-0.04,0.03,0.04
24.093,0.03,-0.02,0.02,0.04
24.104,-0.01,-0.02,-0.00,0.02
24.114,-0.03,-0.01,-0.05,0.06
24.124,-0.02,-0.02,-0.08,0.09
24.134,0.01,0.01,-0.05,0.05
24.144,0.04,0.02,0.03,0.06
24.154,0.02,0.03,0.04,0.05
24.164,0.03,0.02,-0.02,0.04
24.174,0.02,0.02,-0.02,0.03
24.184,-0.01,0.00,-0.01,0.01
24.194,-0.02,-0.01,0.00,0.02
24.204,-0.06,-0.01,-0.01,0.07
24.214,-0.04,-0.01,-0.05,0.06
24.224,-0.02,0.01,-0.05,0.05
24.234,-0.02,0.04,-0.02,0.05
24.245,-0.02,0.04,0.02,0.05
24.255,-0.00,0.01,0.03,0.03
24.265,0.02,0.00,0.02,0.03
24.275,0.01,0.02,0.01,0.02
24.285,0.01,-0.00,0.02,0.02
24.295,-0.02,-0.01,-0.01,0.02
24.305,-0.03,0.00,-0.04,0.05
24.315,-0.06,-0.02,-0.02,0.06
24.325,-0.03,-0.01,-0.03,0.04
24.335,0.00,-0.02,-0.01,0.02
24.345,0.03,-0.00,0.02,0.03
24.355,0.01,-0.01,0.01,0.02
24.365,0.02,-0.00,-0.00,0.02
24.375,0.01,-0.00,0.01,0.01
24.385,0.00,-0.02,-0.02,0.02
24.396,-0.02,0.01,-0.03,0.04
24.406,-0.00,0.01,-0.03,0.03
24.416,0.02,0.02,0.03,0.04
24.426,0.03,0.01,0.06,0.07
24.436,-0.02,0.03,0.01,0.03
24.446,-0.02,0.03,-0.03,0.04
24.456,0.00,0.01,-0.01,0.01
24.466,-0.01,0.01,-0.01,0.02
24.476,-0.01,0.01,0.01,0.01
24.486,-0.01,0.00,-0.01,0.01
24.496,-0.01,-0.00,-0.02,0.02
24.506,0.00,-0.01,-0.01,0.02
24.516,0.01,0.01,-0.01,0.02
24.526,-0.00,0.01,0.03,0.03
24.536,0.01,-0.02,0.01,0.03
24.547,0.01,-0.02,-0.05,0.05
24.557,-0.03,-0.01,-0.05,0.06
24.567,-0.05,-0.02,-0.04,0.07
24.577,-0.03,0.05,0.02,0.06
24.587,0.04,-0.03,-0.00,0.05
24.597,0.04,-0.06,0.05,0.08
24.607,0.01,-0.03,0.07,0.08
24.617,-0.00,-0.03,0.02,0.04
24.627,-0.03,0.00,-0.05,0.05
24.637,0.00,0.02,-0.09,0.09
24.647,0.02,0.03,-0.02,0.04
24.657,0.03,0.01,0.02,0.04
24.667,-0.01,0.03,0.03,0.05
24.678,-0.01,0.01,0.06,0.06
24.688,-0.00,-0.02,0.06,0.06
24.698,0.01,-0.04,0.00,0.04
24.708,0.01,-0.02,0.03,0.04
24.718,0.00,-0.03,0.00,0.03
24.728,-0.01,-0.03,-0.00,0.03
24.738,-0.01,-0.03,-0.02,0.04
24.748,0.01,-0.02,-0.02,0.03
24.758,0.04,0.01,0.00,0.04
24.768,0.02,0.01,0.02,0.03
24.778,0.02,0.00,0.02,0.02
24.788,-0.02,0.00,-0.02,0.02
24.798,-0.02,0.00,-0.01,0.03
24.808,0.01,0.02,-0.01,0.02
24.819,-0.02,0.02,-0.01,0.03
24.828,-0.05,0.04,0.03,0.07
24.839,-0.05,0.03,0.03,0.07
24.849,-0.01,0.03,0.01,0.03
24.859,0.00,-0.00,-0.08,0.08
24.869,-0.01,0.03,-0.14,0.15
24.879,0.00,-0.00,-0.02,0.02
24.889,-0.03,-0.02,0.09,0.09
24.899,-0.02,-0.04,0.05,0.07
24.909,0.00,0.01,-0.01,0.01
24.919,-0.00,0.02,-0.04,0.04
24.929,-0.03,0.03,-0.04,0.05
24.939,-0.03,0.02,-0.01,0.03
24.949,0.02,0.01,0.01,0.03
24.960,0.05,0.01,0.05,0.07
24.969,0.05,-0.02,0.06,0.08
24.980,0.05,-0.03,0.03,0.06
24.990,0.01,-0.03,0.02,0.04
25.000,-0.01,-0.03,0.01,0.03
25.010,-0.02,-0.03,0.01,0.04
25.020,-0.01,-0.03,-0.04,0.05
25.030,-0.04,-0.03,-0.05,0.07
25.040,-0.02,-0.02,-0.05,0.05
25.050,0.04,-0.02,-0.00,0.04
25.060,0.05,0.02,0.02,0.06
25.070,0.05,0.04,0.03,0.07
25.080,0.04,0.01,0.04,0.06
25.090,0.02,0.00,0.03,0.04
25.100,-0.02,0.00,-0.01,0.02
25.110,-0.05,-0.01,-0.03,0.06
25.120,-0.05,-0.01,-0.02,0.05
25.131,-0.04,0.00,-0.02,0.04
25.141,-0.03,0.01,-0.04,0.05
25.151,-0.03,-0.00,-0.01,0.03
25.161,-0.02,0.01,0.01,0.02
25.171,0.01,0.01,0.03,0.03
25.181,0.01,0.02,0.02,0.03
25.191,-0.01,0.02,0.01,0.02
25.201,0.01,0.02,-0.01,0.02
25.211,-0.01,-0.00,-0.01,0.02
25.221,-0.02,-0.03,-0.00,0.04
25.231,-0.06,-0.01,-0.01,0.06
25.241,-0.03,-0.03,-0.01,0.04
25.251,0.02,-0.02,-0.02,0.03
25.261,0.06,0.01,-0.01,0.07
25.272,0.03,-0.01,0.03,0.04
25.282,-0.02,-0.02,-0.01,0.04
25.292,-0.02,-0.01,-0.03,0.04
25.302,0.02,-0.01,-0.03,0.03
25.312,0.02,-0.00,-0.00,0.02
25.322,0.02,0.01,0.03,0.04
25.332,-0.00,-0.00,0.02,0.02
25.342,-0.00,0.00,-0.01,0.02
25.352,-0.00,-0.01,0.00,0.01
25.362,-0.00,-0.02,0.00,0.02
25.372,0.03,0.01,-0.02,0.03
25.382,0.03,0.01,-0.02,0.04
25.392,-0.03,0.00,-0.02,0.04
25.402,-0.06,-0.00,-0.01,0.06
25.413,-0.03,-0.00,0.01,0.03
25.422,0.02,-0.01,-0.01,0.03
25.433,0.03,0.01,-0.05,0.06
25.443,-0.03,0.00,-0.04,0.05
25.453,-0.07,0.01,0.00,0.07
25.463,-0.04,0.03,-0.00,0.05
25.473,0.05,0.03,-0.00,0.06
25.483,0.07,0.01,0.04,0.08
25.493,0.03,-0.01,0.07,0.07
25.503,-0.04,-0.02,0.02,0.05
25.513,-0.07,0.01,-0.05,0.09
25.523,-0.03,0.03,-0.09,0.09
25.533,-0.01,0.01,-0.06,0.06
25.543,0.02,0.00,-0.01,0.03
25.554,0.04,0.01,0.06,0.07
25.564,0.00,0.03,0.08,0.08
25.574,-0.02,0.00,0.05,0.05
25.584,-0.01,-0.01,0.01,0.02
25.594,0.02,-0.00,0.00,0.02
25.604,0.00,-0.01,0.02,0.02
25.614,0.02,-0.04,0.00,0.05
25.624,0.01,-0.06,-0.00,0.06
25.634,0.00,-0.06,0.00,0.06
25.644,0.00,-0.03,0.00,0.03
25.654,0.03,-0.01,-0.01,0.03
25.664,0.03,0.00,-0.01,0.03
25.674,0.01,0.00,-0.01,0.02
25.684,0.01,0.02,-0.02,0.03
25.694,0.02,0.05,-0.00,0.05
25.704,0.03,0.05,0.01,0.06
25.715,-0.01,0.01,0.03,0.04
25.725,-0.02,0.02,0.00,0.03
25.735,-0.03,0.03,-0.01,0.04
25.745,-0.04,0.00,-0.08,0.09
25.755,-0.09,0.01,-0.18,0.20
25.765,-0.05,0.02,-0.05,0.07
25.775,-0.01,-0.01,0.11,0.11
25.785,-0.02,-0.00,0.11,0.11
25.795,-0.02,0.02,0.05,0.06
25.805,-0.01,0.04,0.02,0.05
25.815,-0.01,0.03,-0.02,0.03
25.825,-0.02,0.01,-0.03,0.04
25.836,0.02,-0.02,-0.01,0.03
25.845,0.05,-0.04,0.02,0.06
25.856,0.05,-0.03,0.00,0.06
25.866,0.04,-0.03,-0.01,0.05
25.876,0.04,-0.03,0.01,0.05
25.886,0.02,-0.02,0.02,0.03
25.896,0.00,-0.02,0.03,0.03
25.906,-0.03,-0.01,0.00,0.04
25.916,-0.04,-0.03,-0.04,0.07
25.926,-0.02,-0.02,-0.05,0.06
25.936,0.04,0.01,-0.02,0.04
25.946,0.06,0.02,0.02,0.07
25.956,0.07,0.02,0.01,0.08
25.966,0.04,0.03,0.00,0.05
25.976,0.00,0.02,-0.01,0.02
25.987,-0.00,-0.01,-0.01,0.02
25.997,0.00,-0.01,0.02,0.02
26.007,-0.03,-0.03,0.00,0.04
26.017,-0.05,-0.02,-0.01,0.06
26.027,-0.05,-0.00,-0.01,0.05
26.037,-0.01,0.00,0.00,0.01
26.047,0.02,0.03,-0.01,0.03
26.057,-0.01,0.02,0.01,0.02
26.067,-0.02,0.02,0.01,0.03
26.077,-0.02,0.01,-0.02,0.02
26.087,-0.01,0.00,-0.02,0.02
26.097,-0.00,-0.02,0.00,0.02
26.107,-0.02,-0.01,-0.00,0.02
26.117,-0.01,-0.01,-0.01,0.02
26.127,-0.01,-0.01,-0.01,0.02
26.138,0.00,0.00,-0.02,0.02
26.148,0.02,0.00,-0.01,0.02
26.158,0.01,-0.01,-0.00,0.02
26.168,0.02,-0.02,-0.00,0.03
26.178,0.02,-0.00,-0.01,0.03
26.188,-0.00,-0.00,-0.01,0.01
26.198,0.03,0.00,0.01,0.03
26.208,0.02,-0.00,0.02,0.03
26.218,0.02,-0.02,0.04,0.06
26.228,-0.01,-0.00,-0.01,0.01
26.238,-0.02,-0.01,-0.03,0.04
26.248,-0.02,-0.01,-0.02,0.03
26.258,-0.00,-0.01,-0.01,0.02
26.268,0.01,0.01,-0.01,0.02
26.279,-0.01,-0.02,-0.01,0.02
26.288,-0.03,-0.01,-0.01,0.03
26.299,-0.05,0.01,0.02,0.06
26.309,0.00,0.00,0.02,0.02
26.319,0.03,-0.02,-0.02,0.03
26.329,0.01,-0.01,-0.04,0.05
26.339,-0.00,-0.00,-0.02,0.02
26.349,-0.03,0.02,-0.00,0.03
26.359,-0.03,0.00,-0.01,0.04
26.369,0.01,-0.00,0.00,0.01
26.379,0.01,-0.03,0.09,0.09
26.389,-0.03,-0.02,0.07,0.08
26.399,-0.02,0.02,-0.02,0.04
26.409,0.02,0.05,-0.09,0.10
26.420,0.01,0.02,-0.09,0.09
26.430,-0.02,0.00,-0.03,0.04
26.440,-0.01,-0.00,0.01,0.01
26.450,0.02,0.00,0.06,0.07
26.460,0.03,-0.01,0.07,0.07
26.470,0.02,-0.02,0.03,0.04
26.480,0.02,-0.02,-0.01,0.03
26.490,0.02,-0.01,-0.01,0.02
26.500,0.00,-0.03,0.01,0.03
26.510,0.03,-0.04,0.01,0.05
26.520,0.03,-0.05,0.00,0.06
26.530,0.03,-0.04,-0.02,0.06
26.540,0.01,-0.02,-0.00,0.02
26.550,0.00,0.00,0.00,0.00
26.560,0.02,-0.00,-0.03,0.03
26.571,0.01,0.01,-0.02,0.03
26.581,-0.01,0.02,-0.00,0.02
26.591,-0.04,0.01,-0.02,0.05
26.601,-0.02,0.03,0.00,0.03
26.611,-0.03,0.03,0.02,0.04
26.621,-0.01,0.04,0.01,0.04
26.631,0.00,0.01,-0.03,0.03
26.641,-0.01,-0.01,-0.11,0.11
26.651,-0.03,0.04,-0.11,0.12
26.661,-0.02,0.03,0.04,0.06
26.671,-0.01,-0.03,0.13,0.14
26.681,-0.03,-0.01,0.04,0.05
26.691,-0.01,0.02,-0.02,0.03
26.701,0.02,0.03,-0.06,0.07
26.712,-0.02,0.01,-0.05,0.06
26.722,-0.01,-0.00,-0.02,0.02
26.732,0.00,-0.02,0.01,0.02
26.742,0.03,-0.03,0.03,0.06
26.752,0.03,-0.01,0.04,0.05
26.762,0.02,-0.03,0.01,0.04
26.772,0.00,-0.04,0.00,0.04
26.782,0.02,-0.03,0.01,0.03
26.792,0.02,-0.01,-0.01,0.02
26.802,-0.03,-0.02,-0.04,0.05
26.812,-0.04,-0.03,-0.07,0.09
26.822,-0.02,-0.01,-0.05,0.06
26.832,0.04,0.00,0.00,0.04
26.842,0.08,0.03,0.04,0.09
26.852,0.07,0.03,0.03,0.08
26.863,0.03,0.04,0.01,0.05
26.873,-0.02,0.01,-0.03,0.04
26.883,-0.06,-0.01,-0.04,0.07
26.893,-0.05,-0.01,-0.01,0.05
26.903,-0.04,0.01,-0.00,0.04
26.913,-0.04,0.01,-0.02,0.04
26.923,-0.01,0.02,-0.01,0.03
26.933,-0.01,0.02,-0.00,0.02
26.943,-0.00,0.00,0.01,0.01
26.953,-0.00,0.02,-0.00,0.02
26.963,-0.01,0.01,-0.00,0.02
26.973,-0.02,0.01,0.01,0.03
26.983,-0.05,-0.01,-0.01,0.05
26.993,-0.03,-0.01,-0.02,0.04
27.004,-0.02,-0.03,0.01,0.04
27.014,0.01,-0.01,0.01,0.02
27.024,0.02,-0.02,0.01,0.04
27.034,0.03,0.00,0.01,0.03
27.044,0.01,-0.01,0.01,0.02
27.054,-0.00,-0.02,-0.01,0.02
27.064,0.01,0.00,-0.02,0.02
27.074,0.02,0.01,-0.01,0.02
27.084,-0.00,-0.01,-0.01,0.01
27.094,-0.02,0.01,-0.02,0.03
27.104,-0.01,-0.01,-0.01,0.02
27.114,-0.00,-0.02,0.01,0.02
27.124,0.04,-0.01,0.03,0.05
27.134,0.03,0.01,0.02,0.03
27.144,-0.02,0.02,-0.03,0.05
27.155,-0.04,0.03,-0.03,0.06
27.165,-0.03,0.01,-0.01,0.03
27.175,-0.01,0.01,0.01,0.02
27.185,-0.01,0.01,0.01,0.02
27.195,-0.03,0.00,-0.00,0.03
27.205,-0.03,0.01,-0.02,0.04
27.215,-0.03,0.03,0.01,0.05
27.225,-0.02,0.01,0.04,0.04
27.235,0.01,-0.01,-0.01,0.02
27.245,0.00,-0.02,-0.04,0.04
27.255,-0.06,-0.01,-0.03,0.07
27.265,-0.04,0.00,0.00,0.05
27.275,0.01,0.02,0.00,0.02
27.285,0.03,0.01,0.01,0.03
27.296,0.02,-0.01,0.07,0.07
27.306,0.00,-0.01,0.07,0.07
27.316,0.00,0.01,0.02,0.02
27.326,0.01,0.02,-0.06,0.06
27.336,-0.01,0.00,-0.10,0.10
27.346,-0.02,-0.00,-0.05,0.06
27.356,-0.03,0.02,-0.00,0.03
27.366,0.01,0.01,0.06,0.06
27.376,0.08,0.00,0.07,0.10
27.386,0.07,0.02,0.04,0.08
27.396,0.01,-0.01,0.00,0.02
27.406,-0.03,-0.01,-0.01,0.03
27.416,-0.03,-0.04,-0.03,0.06
27.426,-0.01,-0.03,0.00,0.03
27.437,0.00,-0.02,0.00,0.02
27.447,0.02,-0.02,-0.01,0.04
27.456,-0.00,-0.02,-0.01,0.02
27.467,0.02,0.00,0.00,0.02
27.477,0.03,0.01,-0.01,0.03
27.487,0.02,0.02,-0.01,0.03
27.497,-0.02,0.00,-0.01,0.02
27.507,-0.03,0.00,-0.00,0.03
27.517,-0.03,0.02,0.01,0.04
27.527,0.00,0.04,-0.00,0.04
27.537,-0.01,0.05,0.01,0.05
27.547,0.02,0.02,0.01,0.03
27.557,0.03,0.02,-0.09,0.10
27.567,-0.04,0.03,-0.10,0.12
27.577,-0.01,0.00,0.01,0.02
27.588,-0.02,-0.02,0.12,0.13
27.598,-0.03,-0.02,0.07,0.08
27.608,-0.04,0.01,-0.00,0.04
27.618,-0.02,0.02,-0.03,0.04
27.628,-0.02,0.04,-0.05,0.07
27.638,0.00,0.03,-0.03,0.04
27.648,0.03,0.01,-0.01,0.04
27.658,0.03,0.01,0.05,0.06
27.668,0.02,-0.03,0.03,0.04
27.678,0.02,-0.03,0.02,0.04
27.688,0.01,-0.06,0.04,0.07
27.698,-0.03,-0.03,0.01,0.04
27.708,-0.04,-0.04,-0.02,0.06
27.718,-0.01,-0.04,-0.03,0.05
27.728,0.02,-0.02,-0.05,0.06
27.739,0.03,0.01,-0.05,0.06
27.749,0.02,0.02,0.00,0.03
27.759,0.05,0.03,0.01,0.06
27.769,0.06,0.04,0.00,0.07
27.779,0.02,0.01,-0.01,0.02
27.789,-0.02,0.00,-0.00,0.02
27.799,-0.04,-0.02,-0.00,0.04
27.811,-0.04,-0.01,-0.01,0.04
27.821,-0.05,-0.01,-0.01,0.05
27.832,-0.02,-0.00,-0.01,0.02
27.842,-0.02,0.00,-0.02,0.03
27.852,-0.03,0.01,-0.03,0.05
27.862,0.01,0.03,-0.01,0.03
27.872,0.02,0.02,0.00,0.03
27.882,0.00,0.03,0.01,0.03
27.892,-0.01,0.01,-0.01,0.02
27.902,-0.04,0.00,0.01,0.04
27.912,-0.01,-0.00,0.00,0.01
27.922,-0.00,-0.01,-0.00,0.01
27.932,0.00,-0.02,-0.02,0.02
27.942,-0.02,-0.04,-0.02,0.05
27.952,-0.00,-0.01,-0.00,0.01
27.962,0.03,-0.03,0.00,0.04
27.973,0.02,-0.01,0.01,0.03
27.983,0.01,0.01,-0.00,0.01
27.993,-0.02,0.01,0.01,0.02
28.003,-0.00,0.00,0.01,0.01
28.013,0.02,0.00,0.01,0.02
28.023,0.01,0.01,0.00,0.01
28.033,0.03,-0.01,0.02,0.03
28.043,0.01,0.00,0.01,0.01
28.053,0.01,0.01,-0.03,0.03
28.063,-0.01,-0.01,-0.01,0.02
28.074,-0.04,0.01,-0.01,0.04
28.083,-0.03,0.02,-0.04,0.05
28.093,-0.01,0.01,-0.03,0.04
28.103,0.00,-0.00,-0.01,0.01
28.114,-0.02,-0.00,-0.00,0.02
28.124,-0.02,0.01,0.00,0.02
28.134,-0.01,0.00,0.03,0.03
28.144,0.01,-0.01,0.00,0.02
28.154,-0.00,-0.01,-0.04,0.04
28.164,-0.03,-0.00,-0.05,0.06
28.174,-0.05,0.02,-0.00,0.05
28.184,-0.02,0.00,-0.01,0.02
28.194,0.01,0.02,-0.00,0.02
28.204,0.04,-0.01,0.05,0.06
28.214,0.01,-0.02,0.06,0.06
28.224,-0.01,0.01,0.01,0.02
28.234,0.02,0.01,-0.06,0.07
28.244,0.03,0.02,-0.10,0.11
28.254,-0.02,-0.01,-0.04,0.05
28.265,-0.04,0.00,0.01,0.04
28.275,-0.00,0.00,0.05,0.05
28.285,0.05,0.01,0.06,0.08
28.295,0.06,0.01,0.05,0.07
28.305,0.01,-0.02,0.01,0.02
28.315,-0.01,-0.03,-0.01,0.03
28.325,-0.00,-0.02,0.02,0.03
28.335,0.01,-0.03,-0.01,0.04
28.345,0.00,-0.03,-0.01,0.03
28.355,0.00,-0.03,-0.00,0.03
28.365,0.01,-0.02,-0.01,0.02
28.375,0.03,-0.00,0.01,0.03
28.385,0.01,-0.00,-0.01,0.01
28.396,-0.01,0.00,-0.03,0.03
28.405,-0.02,0.03,-0.03,0.04
28.416,-0.02,0.02,-0.00,0.03
28.426,-0.01,0.03,-0.01,0.03
28.436,-0.01,0.04,0.01,0.04
28.446,0.05,0.04,0.01,0.07
28.456,0.07,0.03,-0.00,0.08
28.466,0.02,0.00,-0.10,0.10
28.476,-0.04,0.01,-0.14,0.14
28.486,0.04,0.02,-0.03,0.05
28.496,-0.06,0.02,0.21,0.22
28.506,-0.18,-0.07,0.05,0.20
28.516,-0.11,-0.01,-0.08,0.13
28.526,-0.03,0.04,-0.00,0.05
28.537,0.05,0.04,-0.02,0.07
28.547,0.06,0.01,-0.03,0.07
28.557,0.07,0.02,-0.01,0.07
28.567,-0.01,0.00,0.08,0.08
28.577,-0.00,-0.05,0.03,0.06
28.587,0.03,-0.03,-0.01,0.05
28.597,0.01,-0.03,0.00,0.03
28.607,0.02,-0.02,0.03,0.04
28.617,-0.00,-0.03,0.02,0.03
28.627,-0.01,-0.03,-0.03,0.04
28.637,-0.05,-0.01,-0.06,0.08
28.647,-0.03,-0.01,-0.05,0.06
28.657,0.01,0.01,-0.01,0.02
28.667,0.03,0.02,0.02,0.04
28.677,0.04,0.03,0.04,0.06
28.687,0.02,0.03,0.03,0.05
28.698,0.01,0.01,0.02,0.02
28.708,-0.00,-0.01,0.01,0.01
28.718,-0.02,-0.02,-0.01,0.03
28.728,-0.03,-0.03,-0.02,0.04
28.738,-0.04,-0.01,-0.01,0.04
28.748,-0.05,0.01,-0.03,0.06
28.758,-0.05,0.01,-0.02,0.06
28.768,-0.03,0.02,-0.00,0.04
28.778,0.01,0.02,0.01,0.02
28.788,0.02,0.01,0.03,0.04
28.798,0.01,-0.01,0.02,0.03
28.808,0.02,-0.00,-0.00,0.02
28.818,-0.00,-0.01,-0.04,0.04
28.829,-0.01,-0.01,-0.02,0.02
28.839,-0.01,-0.04,-0.02,0.05
28.849,0.00,-0.03,-0.00,0.03
28.859,-0.01,-0.03,-0.00,0.03
28.869,0.01,-0.03,-0.01,0.04
28.879,0.03,-0.01,0.03,0.04
28.889,0.01,0.01,0.00,0.01
28.899,0.00,0.02,-0.02,0.03
28.909,-0.00,0.02,-0.01,0.02
28.919,0.01,0.03,-0.01,0.03
28.929,0.01,0.01,-0.02,0.02
28.939,-0.01,0.01,0.01,0.02
28.949,-0.01,-0.00,0.04,0.05
28.959,-0.03,0.01,-0.02,0.04
28.970,-0.03,-0.00,-0.03,0.04
28.980,0.01,-0.01,-0.01,0.01
28.990,-0.03,-0.01,0.01,0.04
29.000,-0.03,0.00,-0.01,0.03
29.010,-0.00,-0.01,-0.01,0.02
29.020,0.01,-0.01,0.01,0.01
29.030,-0.01,0.01,0.00,0.02
29.040,-0.01,0.01,-0.00,0.02
29.050,0.01,-0.02,-0.01,0.02
29.060,0.01,-0.03,-0.03,0.05
29.070,0.01,-0.03,-0.08,0.08
29.080,0.00,-0.00,-0.04,0.04
29.090,-0.02,0.01,0.01,0.02
29.100,-0.01,0.01,0.00,0.01
29.111,0.00,-0.01,0.02,0.02
29.120,0.02,-0.01,0.08,0.09
29.130,0.01,-0.01,0.10,0.10
29.141,-0.01,0.02,-0.01,0.03
29.151,-0.00,0.03,-0.09,0.09
29.161,-0.02,0.02,-0.12,0.12
29.171,-0.02,0.01,-0.06,0.07
29.181,-0.03,0.01,0.00,0.04
29.191,-0.03,0.01,0.05,0.06
29.203,0.02,0.01,0.08,0.08
29.211,0.04,-0.01,0.07,0.08
29.221,0.01,-0.01,0.03,0.03
29.231,-0.00,-0.00,0.00,0.01
29.241,0.01,-0.02,-0.00,0.02
29.251,0.01,-0.03,0.00,0.03
29.262,-0.01,-0.04,-0.02,0.04
29.271,-0.01,-0.03,-0.01,0.03
29.282,0.02,-0.02,-0.00,0.03
29.292,0.06,-0.00,-0.01,0.06
29.302,0.05,0.02,-0.01,0.05
29.312,0.02,0.02,0.02,0.03
29.322,-0.03,0.01,-0.01,0.03
29.332,-0.06,0.03,-0.02,0.07
29.342,-0.05,0.03,-0.01,0.06
29.352,-0.02,0.04,-0.00,0.04
29.362,-0.00,0.04,0.01,0.04
29.372,0.00,0.02,-0.03,0.03
29.382,-0.00,0.02,-0.11,0.12
29.392,-0.02,0.03,-0.12,0.13
29.402,0.02,0.02,0.03,0.04
29.412,0.00,0.01,0.11,0.11
29.422,-0.02,0.00,0.05,0.05
29.433,-0.04,0.01,0.01,0.04
29.443,-0.01,-0.00,-0.03,0.03
29.453,-0.02,0.03,-0.04,0.05
29.463,-0.03,0.01,-0.03,0.04
29.473,-0.00,-0.01,-0.01,0.02
29.483,0.05,-0.00,0.03,0.06
29.493,0.05,-0.02,0.05,0.07
29.503,0.01,-0.04,0.02,0.05
29.513,-0.01,-0.02,0.02,0.03
29.523,0.01,-0.02,0.03,0.03
29.533,-0.02,-0.02,0.01,0.03
29.543,-0.02,-0.02,-0.03,0.04
29.553,-0.00,-0.02,-0.08,0.08
29.564,-0.03,-0.01,-0.05,0.06
29.574,0.01,0.00,-0.02,0.03
29.584,0.04,0.02,0.02,0.05
29.594,0.03,0.03,-0.00,0.04
29.604,0.04,0.03,-0.00,0.05
29.614,0.02,0.02,-0.00,0.03
29.624,0.02,0.01,-0.01,0.02
29.634,-0.03,-0.01,0.00,0.03
29.644,-0.04,-0.00,-0.01,0.04
29.654,-0.03,0.01,-0.02,0.04
29.664,-0.04,-0.00,-0.02,0.04
29.674,-0.01,0.01,-0.02,0.03
29.684,-0.02,0.01,-0.02,0.03
29.694,-0.00,0.01,-0.01,0.01
29.704,0.00,0.02,0.01,0.03
29.715,0.02,0.03,0.03,0.04
29.725,0.02,0.02,0.02,0.03
29.735,0.01,0.02,-0.02,0.03
29.745,-0.00,0.01,-0.03,0.03
29.755,-0.03,-0.01,0.00,0.04
29.765,-0.02,-0.03,0.01,0.03
29.775,-0.02,-0.03,-0.01,0.04
29.785,0.01,-0.04,-0.03,0.05
29.795,0.02,-0.03,-0.01,0.04
29.805,0.01,-0.00,-0.00,0.01
29.815,-0.01,0.00,0.00,0.01
29.825,0.02,0.01,-0.01,0.02
29.835,0.03,0.02,-0.00,0.04
29.845,0.03,0.01,0.02,0.04
29.856,0.02,-0.01,0.03,0.04
29.866,-0.01,-0.01,-0.01,0.02
29.876,-0.04,-0.01,-0.02,0.05
29.886,-0.01,-0.00,-0.02,0.03
29.896,0.01,0.01,-0.03,0.03
29.906,0.00,0.01,-0.01,0.02
29.916,0.00,0.00,-0.02,0.02
29.926,-0.00,-0.00,-0.01,0.01
29.936,-0.04,0.01,-0.01,0.04
29.946,-0.04,0.04,0.01,0.06
29.956,0.01,0.03,0.00,0.03
29.966,0.04,0.03,0.00,0.04
29.977,-0.01,-0.00,-0.04,0.04
29.986,-0.03,0.01,-0.05,0.06
29.997,-0.04,0.03,-0.03,0.05
30.007,0.01,0.01,-0.03,0.04
30.017,0.02,0.00,-0.04,0.05
30.027,-0.01,-0.04,0.02,0.05
30.037,-0.06,-0.04,0.08,0.11
30.047,-0.04,-0.04,0.04,0.07
30.057,-0.01,0.02,-0.06,0.06
30.067,0.03,0.05,-0.06,0.09
30.077,0.02,0.04,-0.05,0.07
30.087,0.01,0.03,-0.02,0.04
30.097,0.04,0.04,0.04,0.07
30.107,0.04,0.03,0.06,0.07
30.117,0.01,-0.01,0.04,0.04
30.127,-0.04,-0.04,0.02,0.06
30.137,-0.03,-0.02,-0.00,0.03
30.148,-0.03,-0.01,-0.02,0.04
30.158,0.01,-0.02,-0.02,0.03
30.168,0.00,-0.02,-0.02,0.03
30.178,0.01,-0.03,-0.00,0.03
30.188,0.00,-0.01,-0.01,0.02
30.198,0.05,0.00,-0.01,0.05
30.208,0.05,0.02,0.01,0.05
30.218,-0.01,0.01,-0.01,0.02
30.228,-0.04,0.02,-0.01,0.04
30.238,-0.07,0.03,-0.02,0.08
30.248,-0.03,0.03,-0.01,0.04
30.258,0.01,0.04,-0.01,0.04
30.268,0.02,0.04,0.01,0.05
30.278,0.01,0.01,0.03,0.03
30.288,-0.02,0.00,-0.07,0.07
30.299,-0.03,0.01,-0.12,0.12
30.309,-0.01,0.01,-0.03,0.03
30.319,0.01,-0.02,0.08,0.09
30.329,-0.02,-0.02,0.05,0.06
30.339,-0.05,0.00,0.01,0.05
30.349,-0.04,-0.00,-0.03,0.05
30.359,-0.03,-0.00,-0.03,0.04
30.369,0.01,0.02,-0.03,0.04
30.379,0.01,0.02,0.01,0.02
30.389,0.03,-0.00,0.05,0.06
30.399,0.04,-0.03,0.02,0.05
30.409,0.00,-0.01,-0.01,0.02
30.420,-0.01,-0.01,-0.00,0.02
30.430,-0.02,-0.02,0.02,0.03
30.440,-0.03,-0.00,0.01,0.04
30.450,-0.04,-0.02,-0.03,0.06
30.460,-0.02,-0.02,-0.06,0.06
30.470,-0.02,-0.01,-0.04,0.04
30.480,0.00,-0.00,-0.03,0.03
30.490,0.01,0.02,0.01,0.02
30.500,0.05,0.04,0.03,0.07
30.510,0.03,0.04,0.02,0.05
30.520,0.00,0.02,-0.01,0.02
30.530,0.00,0.00,-0.01,0.01
30.540,-0.01,0.00,0.00,0.01
30.550,-0.03,0.01,0.01,0.03
30.560,-0.01,-0.01,0.00,0.02
30.570,-0.04,-0.02,-0.01,0.04
30.581,-0.01,-0.00,-0.02,0.02
30.591,0.01,0.01,-0.02,0.02
30.601,-0.02,0.01,-0.00,0.02
30.611,-0.03,-0.01,-0.01,0.03
30.621,-0.02,-0.02,-0.02,0.03
30.631,-0.00,0.01,-0.01,0.01
30.641,-0.01,0.02,0.00,0.02
30.651,-0.01,-0.01,0.01,0.02
30.661,0.00,-0.02,-0.00,0.02
30.671,0.01,-0.02,0.01,0.03
30.681,0.03,0.00,0.01,0.04
30.691,0.01,-0.01,-0.02,0.03
30.701,-0.01,-0.01,-0.02,0.03
30.711,-0.02,0.01,0.01,0.03
30.721,-0.01,0.02,-0.00,0.02
30.732,-0.01,0.02,-0.03,0.03
30.742,0.02,0.02,-0.03,0.04
30.752,0.03,0.01,0.02,0.03
30.762,0.02,-0.01,0.03,0.04
30.772,-0.01,-0.01,-0.01,0.02
30.782,-0.00,0.01,-0.05,0.05
30.792,0.01,0.01,-0.02,0.02
30.802,-0.01,0.01,0.02,0.02
30.812,-0.03,0.01,-0.00,0.03
30.822,-0.02,0.02,-0.01,0.03
30.832,0.02,0.01,-0.00,0.02
30.842,0.00,-0.00,-0.01,0.01
30.853,-0.02,-0.01,-0.01,0.03
30.863,0.00,-0.01,-0.02,0.02
30.873,0.02,-0.01,0.00,0.02
30.883,0.02,-0.01,-0.01,0.03
30.893,0.00,-0.01,-0.04,0.04
30.903,-0.03,0.01,-0.08,0.09
30.913,0.01,0.04,-0.03,0.05
30.923,-0.00,0.04,0.01,0.04
30.933,-0.03,-0.02,0.03,0.05
30.943,-0.04,-0.04,0.06,0.08
30.953,-0.04,-0.05,0.05,0.08
30.963,-0.01,-0.01,-0.01,0.02
30.973,0.02,0.05,-0.07,0.09
30.983,0.02,0.05,-0.09,0.10
30.994,0.00,0.02,-0.06,0.07
31.003,0.01,-0.00,-0.01,0.01
31.014,0.02,0.02,0.02,0.04
31.024,0.00,0.02,0.06,0.07
31.034,-0.03,-0.03,0.06,0.07
31.044,-0.03,-0.03,0.02,0.05
31.054,-0.02,-0.01,0.01,0.02
31.064,0.01,-0.01,0.00,0.01
31.074,0.04,-0.03,-0.02,0.06
31.084,0.05,-0.04,-0.03,0.07
31.094,0.03,-0.05,-0.02,0.07
31.104,0.02,-0.02,-0.02,0.04
31.114,0.02,-0.01,-0.02,0.03
31.124,0.00,-0.01,-0.01,0.01
31.134,0.00,0.01,-0.01,0.01
31.144,0.00,0.02,0.00,0.02
31.155,-0.01,0.02,0.00,0.02
31.165,-0.03,0.04,0.01,0.05
31.175,-0.03,0.04,0.00,0.05
31.185,-0.01,0.04,-0.01,0.04
31.195,0.02,0.04,-0.02,0.05
31.205,-0.01,0.02,-0.10,0.10
31.215,-0.05,0.01,-0.11,0.12
31.225,-0.01,0.00,-0.00,0.01
31.235,0.02,-0.00,0.08,0.09
31.245,-0.02,-0.01,0.04,0.05
31.255,-0.05,-0.00,-0.01,0.05
31.265,-0.07,0.02,-0.02,0.08
31.275,-0.03,0.02,-0.02,0.04
31.286,0.02,0.03,-0.03,0.04
31.296,0.03,0.03,-0.01,0.04
31.306,0.05,0.02,0.02,0.06
31.316,0.04,-0.01,0.01,0.05
31.326,0.03,-0.03,0.01,0.05
31.336,0.01,-0.03,0.03,0.05
31.346,-0.02,-0.05,0.03,0.06
31.356,-0.03,-0.02,-0.00,0.03
31.366,-0.04,-0.02,-0.03,0.05
31.376,-0.01,-0.03,-0.07,0.08
31.386,0.02,-0.00,-0.03,0.04
31.396,0.02,0.02,0.01,0.03
31.406,0.03,0.02,0.04,0.05
31.416,0.03,0.02,0.02,0.04
31.426,0.03,0.04,-0.01,0.05
31.436,-0.01,0.02,-0.02,0.03
31.446,-0.01,0.02,-0.01,0.03
31.457,0.00,0.02,-0.02,0.03
31.467,-0.03,0.01,-0.03,0.04
31.477,-0.04,-0.00,-0.01,0.04
31.487,-0.03,-0.02,-0.03,0.05
31.497,-0.01,-0.01,-0.02,0.02
31.507,0.00,0.01,0.00,0.01
31.517,0.00,0.02,0.02,0.02
31.527,0.02,0.02,0.02,0.03
31.537,0.02,0.00,0.03,0.04
31.547,0.01,0.00,0.00,0.01
31.557,0.01,0.00,0.00,0.01
31.567,0.01,-0.00,-0.02,0.02
31.577,-0.03,-0.03,-0.04,0.05
31.588,-0.03,-0.01,-0.03,0.04
31.598,-0.02,-0.01,-0.01,0.03
31.608,-0.00,-0.02,-0.02,0.03
31.618,0.02,-0.01,-0.02,0.03
31.628,0.04,-0.01,0.02,0.05
31.638,0.04,0.01,0.03,0.05
31.648,0.02,0.00,0.01,0.02
31.658,-0.01,0.02,-0.04,0.04
31.668,-0.02,0.01,-0.05,0.06
31.678,-0.01,0.01,-0.04,0.04
31.688,-0.03,0.01,-0.02,0.04
31.698,-0.03,0.02,0.01,0.03
31.708,0.01,0.00,0.00,0.01
31.718,0.01,0.00,-0.02,0.02
31.728,-0.00,-0.01,-0.02,0.03
31.739,-0.00,0.01,0.01,0.02
31.749,-0.01,0.02,0.00,0.02
31.759,-0.01,0.02,-0.01,0.02
31.769,0.01,0.02,-0.03,0.03
31.779,0.00,-0.00,-0.04,0.04
31.789,-0.01,0.02,-0.04,0.05
31.799,0.00,0.01,-0.02,0.02
31.809,0.01,0.01,-0.01,0.02
31.819,0.02,-0.02,0.00,0.03
31.829,0.01,-0.05,0.07,0.08
31.839,-0.02,-0.06,0.08,0.10
31.849,-0.02,-0.04,-0.00,0.05
31.860,-0.05,0.02,-0.04,0.07
31.869,0.02,0.04,-0.06,0.07
31.880,0.05,0.05,-0.04,0.08
31.890,0.03,0.07,-0.00,0.07
31.900,0.02,0.05,0.04,0.07
31.910,0.03,0.04,0.04,0.06
31.920,0.02,-0.01,0.03,0.04
31.930,-0.01,-0.04,0.00,0.05
31.940,-0.02,-0.05,-0.01,0.05
31.950,-0.03,-0.04,0.01,0.05
31.960,-0.01,-0.06,-0.02,0.06
31.970,0.01,-0.03,-0.02,0.04
31.980,0.05,-0.01,0.00,0.05
31.990,0.04,0.01,0.01,0.04
32.000,0.04,0.03,0.01,0.05
32.010,0.03,0.03,-0.00,0.05
32.020,-0.01,0.03,-0.01,0.04
32.031,-0.03,0.01,-0.01,0.03
32.041,-0.03,-0.00,-0.03,0.04
32.051,-0.02,0.03,-0.04,0.05
32.061,-0.00,0.03,-0.00,0.03
32.071,-0.02,0.02,0.02,0.04
32.081,0.01,0.01,-0.02,0.02
32.091,0.02,0.01,-0.11,0.11
32.101,0.00,0.03,-0.10,0.10
32.111,0.02,-0.00,0.02,0.03
32.121,0.00,-0.01,0.08,0.08
32.131,-0.01,-0.01,0.04,0.04
32.141,-0.02,0.01,0.02,0.03
32.151,-0.03,0.01,-0.01,0.04
32.161,-0.03,-0.00,-0.04,0.05
32.172,-0.00,0.01,-0.02,0.02
32.182,0.01,0.03,0.01,0.03
32.192,0.03,0.02,0.01,0.04
32.202,0.05,0.00,0.02,0.06
32.212,0.04,-0.01,0.02,0.04
32.222,0.01,-0.02,0.02,0.03
32.232,-0.02,-0.03,-0.01,0.04
32.242,-0.01,-0.03,-0.03,0.04
32.252,0.04,-0.00,-0.03,0.04
32.262,0.04,-0.01,-0.05,0.06
32.272,-0.01,-0.01,-0.04,0.04
32.282,-0.03,-0.01,0.00,0.03
32.292,0.01,0.01,-0.00,0.02
32.302,0.05,0.03,0.00,0.06
32.312,0.02,0.04,0.00,0.04
32.323,-0.02,0.04,-0.01,0.05
32.333,-0.02,0.02,-0.01,0.04
32.343,-0.01,0.02,0.00,0.02
32.353,0.00,-0.00,-0.01,0.01
32.363,-0.03,-0.00,-0.03,0.05
32.373,-0.03,-0.00,-0.03,0.04
32.383,-0.00,-0.01,-0.03,0.03
32.393,0.00,0.01,-0.01,0.01
32.403,-0.02,-0.01,-0.02,0.03
32.413,-0.04,-0.00,0.02,0.05
32.423,-0.01,0.01,0.01,0.02
32.433,0.03,0.04,0.01,0.05
32.443,0.03,0.03,0.01,0.04
32.453,-0.00,-0.01,-0.00,0.01
32.463,-0.03,-0.02,-0.02,0.04
32.474,0.03,-0.02,-0.03,0.04
32.484,0.06,-0.01,0.02,0.06
32.494,0.03,-0.01,0.01,0.04
32.504,-0.04,-0.03,-0.03,0.06
32.514,-0.02,-0.03,-0.04,0.06
32.524,0.05,-0.01,-0.02,0.05
32.534,0.05,0.03,-0.01,0.06
32.544,-0.00,0.01,0.01,0.02
32.554,-0.02,0.01,0.00,0.02
32.564,0.03,0.01,0.01,0.04
32.574,0.02,0.02,-0.00,0.03
32.584,-0.01,0.04,-0.02,0.04
32.594,-0.03,0.03,-0.03,0.05
32.605,-0.01,0.02,-0.01,0.03
32.615,-0.00,0.01,-0.01,0.02
32.625,-0.02,-0.00,-0.03,0.03
32.635,-0.02,0.00,-0.02,0.03
32.645,-0.01,-0.00,0.00,0.01
32.655,-0.01,-0.01,-0.02,0.02
32.665,-0.01,-0.02,-0.03,0.04
32.675,0.01,-0.03,0.04,0.05
32.685,0.01,-0.04,0.06,0.07
32.695,-0.05,-0.02,0.02,0.06
32.705,-0.05,0.00,-0.05,0.07
32.715,0.00,0.02,-0.08,0.08
32.725,-0.00,0.04,-0.06,0.07
32.735,0.00,0.05,-0.01,0.05
32.746,0.03,0.05,0.03,0.06
32.756,0.03,0.03,0.05,0.06
32.766,0.03,0.01,0.03,0.04
32.776,-0.01,-0.02,0.00,0.03
32.786,-0.06,-0.04,-0.01,0.07
32.796,-0.06,-0.03,0.00,0.07
32.806,0.00,-0.02,0.01,0.03
32.816,0.02,-0.01,-0.00,0.02
32.826,0.04,-0.01,-0.00,0.04
32.836,0.04,-0.01,-0.00,0.04
32.846,0.04,0.01,-0.00,0.04
32.856,0.04,0.02,-0.01,0.05
32.866,0.00,0.00,-0.00,0.01
32.876,-0.02,0.01,-0.01,0.02
32.886,-0.04,0.02,0.00,0.04
32.896,-0.06,0.01,-0.01,0.07
32.907,-0.04,0.02,-0.01,0.04
32.917,-0.01,0.04,0.00,0.04
32.927,0.01,0.02,-0.02,0.03
32.937,-0.01,0.01,-0.12,0.12
32.947,-0.04,-0.00,-0.09,0.10
32.957,0.00,0.00,-0.00,0.00
32.967,0.02,0.02,0.07,0.08
32.977,-0.02,0.02,0.07,0.08
32.987,-0.06,0.01,0.00,0.06
32.997,-0.05,0.01,-0.04,0.06
33.007,0.00,0.01,-0.03,0.03
33.017,0.01,0.01,-0.01,0.02
33.027,0.01,0.03,0.03,0.05
33.037,0.05,0.01,0.02,0.05
33.048,0.03,-0.00,0.00,0.03
33.058,0.02,-0.02,-0.02,0.03
33.068,0.00,-0.04,-0.02,0.04
33.078,-0.02,-0.04,0.01,0.05
33.088,-0.03,-0.02,-0.00,0.03
33.098,-0.02,-0.02,-0.03,0.05
33.108,-0.02,-0.00,-0.04,0.05
33.118,-0.00,0.01,-0.02,0.02
33.128,0.01,-0.01,0.01,0.01
33.138,0.06,0.01,0.00,0.06
33.148,0.06,0.00,-0.02,0.06
33.158,0.04,0.01,-0.03,0.05
33.168,-0.04,-0.00,-0.01,0.04
33.179,-0.07,-0.01,0.01,0.07
33.189,-0.04,0.00,0.01,0.04
33.199,-0.00,0.00,-0.02,0.02
33.209,0.02,0.00,-0.01,0.02
33.219,-0.01,0.02,-0.01,0.03
33.229,-0.03,0.01,-0.02,0.04
33.239,-0.04,0.02,-0.00,0.05
33.249,-0.01,0.01,-0.02,0.03
33.259,0.00,0.02,-0.02,0.03
33.269,-0.00,0.00,-0.02,0.02
33.279,-0.02,0.00,0.02,0.03
33.289,0.00,-0.02,0.03,0.04
33.299,0.00,-0.01,0.01,0.02
33.309,-0.02,-0.00,-0.02,0.03
33.320,-0.02,-0.01,-0.00,0.02
33.329,-0.01,-0.01,-0.01,0.02
33.340,0.03,-0.00,-0.01,0.03
33.350,0.03,-0.01,-0.01,0.03
33.360,0.01,-0.00,-0.02,0.02
33.370,0.01,-0.02,-0.02,0.03
33.380,-0.01,-0.02,0.00,0.02
33.390,0.01,-0.00,-0.02,0.02
33.400,0.01,0.01,-0.02,0.03
33.410,0.00,0.03,0.00,0.03
33.420,0.00,0.00,0.00,0.00
33.430,-0.02,0.01,-0.02,0.03
33.440,-0.03,0.01,-0.02,0.04
33.450,-0.03,0.03,-0.01,0.04
33.460,-0.01,0.01,-0.04,0.04
33.471,-0.01,0.01,-0.05,0.05
33.481,0.00,-0.02,-0.00,0.02
33.491,-0.01,-0.03,0.05,0.06
33.501,-0.05,-0.03,0.04,0.07
33.511,-0.05,-0.01,-0.02,0.06
33.521,-0.01,0.04,-0.08,0.09
33.531,0.04,0.06,-0.07,0.10
33.541,0.02,0.06,-0.00,0.07
33.551,0.02,0.06,0.04,0.07
33.561,0.04,0.06,0.05,0.08
33.571,0.02,0.02,0.05,0.06
33.581,0.00,-0.02,0.04,0.04
33.591,-0.03,-0.03,0.01,0.05
33.601,-0.02,-0.04,0.00,0.05
33.612,-0.03,-0.05,0.00,0.06
33.622,0.01,-0.06,-0.03,0.07
33.632,0.03,-0.05,-0.03,0.07
33.642,0.00,-0.04,-0.02,0.05
33.652,0.02,-0.02,-0.00,0.03
33.662,0.03,0.01,0.01,0.04
33.672,0.02,0.02,0.03,0.03
33.682,0.03,0.02,-0.00,0.04
33.692,0.00,-0.00,-0.01,0.01
33.702,-0.02,0.01,0.00,0.03
33.712,-0.01,-0.00,-0.01,0.02
33.722,-0.01,0.03,0.02,0.04
33.732,-0.05,0.01,0.01,0.05
33.742,-0.03,0.00,-0.10,0.10
33.752,-0.02,0.01,-0.11,0.11
33.762,0.02,0.02,-0.04,0.05
33.773,0.04,0.02,0.07,0.08
33.783,0.03,0.01,0.10,0.11
33.793,-0.02,0.00,0.02,0.03
33.803,-0.04,0.00,-0.04,0.06
33.813,-0.05,0.01,-0.05,0.07
33.823,-0.03,0.01,-0.03,0.04
33.833,-0.00,0.02,0.02,0.03
33.843,0.01,0.01,0.03,0.03
33.853,-0.00,-0.02,0.02,0.03
33.863,0.02,-0.01,-0.02,0.03
33.873,0.03,-0.02,0.01,0.04
33.883,0.01,-0.02,0.02,0.03
33.894,0.00,-0.01,0.02,0.02
33.904,-0.03,-0.03,-0.04,0.06
33.914,-0.04,-0.03,-0.07,0.09
33.924,-0.04,-0.02,-0.05,0.07
33.934,0.02,-0.01,-0.01,0.02
33.944,0.08,0.01,0.01,0.08
33.954,0.05,0.02,0.01,0.06
33.964,-0.01,0.01,0.01,0.02
33.974,-0.03,0.02,-0.00,0.03
33.984,-0.01,0.01,0.00,0.01
33.994,0.03,-0.01,-0.02,0.03
34.004,0.02,0.01,-0.02,0.03
34.014,-0.02,-0.01,-0.03,0.04
34.024,-0.06,-0.04,-0.02,0.07
34.035,-0.03,-0.01,-0.02,0.04
34.044,-0.01,0.01,-0.02,0.03
34.055,-0.01,0.01,-0.00,0.02
34.065,-0.01,0.01,0.03,0.03
34.075,-0.02,0.02,0.04,0.05
34.085,-0.04,0.03,-0.01,0.05
34.095,-0.01,0.03,-0.02,0.04
34.105,0.06,0.02,0.01,0.06
34.115,0.05,0.01,-0.03,0.06
34.125,0.01,0.01,-0.03,0.03
34.135,-0.01,-0.01,0.01,0.02
34.145,-0.00,-0.02,-0.01,0.02
34.155,-0.02,-0.03,-0.02,0.04
34.165,-0.02,-0.03,-0.01,0.04
34.175,-0.01,-0.03,-0.02,0.04
34.185,-0.02,-0.01,-0.02,0.03
34.196,-0.02,0.03,-0.01,0.04
34.206,0.03,-0.01,0.01,0.03
34.216,0.03,0.00,-0.01,0.04
34.226,0.04,0.01,-0.03,0.05
34.236,0.03,0.03,-0.01,0.05
34.246,0.00,0.03,0.00,0.03
34.256,-0.04,0.00,-0.03,0.05
34.266,-0.03,-0.01,-0.02,0.04
34.276,-0.04,-0.02,0.05,0.07
34.286,-0.04,-0.02,0.03,0.06
34.296,-0.05,-0.03,-0.01,0.06
34.306,-0.02,0.00,-0.09,0.09
34.316,-0.01,0.02,-0.10,0.10
34.326,0.03,0.05,-0.02,0.06
34.337,0.06,0.09,0.04,0.12
34.347,0.06,0.08,0.09,0.13
34.357,0.02,0.05,0.06,0.08
34.367,-0.00,0.01,0.02,0.02
34.377,-0.04,-0.03,-0.00,0.05
34.387,-0.05,-0.05,0.01,0.07
34.397,-0.05,-0.06,-0.01,0.08
34.407,-0.03,-0.07,-0.04,0.09
34.417,0.03,-0.06,-0.04,0.08
34.427,0.09,-0.04,0.00,0.09
34.437,0.04,-0.02,0.01,0.05
34.447,0.05,-0.01,-0.00,0.05
34.457,0.04,0.01,0.01,0.04
34.468,0.01,0.01,0.00,0.02
34.478,-0.01,0.01,-0.02,0.02
34.488,-0.04,0.01,-0.02,0.04
34.498,-0.03,0.00,0.00,0.04
34.508,-0.02,0.03,0.01,0.04
34.518,-0.01,0.02,0.00,0.03
34.528,0.01,0.00,-0.07,0.08
34.538,-0.01,0.00,-0.09,0.09
34.548,0.00,0.01,-0.02,0.03
34.558,0.00,0.02,0.06,0.07
34.568,-0.03,0.02,0.07,0.08
34.578,-0.03,0.01,0.02,0.04
34.588,-0.03,0.00,-0.04,0.05
34.598,-0.03,0.02,-0.06,0.07
34.608,-0.03,0.01,-0.03,0.04
34.618,0.00,0.02,0.00,0.02
34.629,0.02,0.03,0.02,0.04
34.639,0.03,0.02,0.03,0.05
34.649,0.04,0.00,0.01,0.04
34.659,-0.00,0.00,0.00,0.00
34.669,-0.04,-0.01,0.01,0.04
34.679,-0.01,-0.00,0.00,0.01
34.689,-0.01,-0.01,-0.02,0.03
34.699,-0.02,-0.02,-0.05,0.06
34.709,-0.02,-0.02,-0.07,0.07
34.719,-0.00,-0.02,-0.05,0.05
34.729,0.02,-0.01,0.00,0.02
34.739,0.02,0.01,0.00,0.02
34.749,0.03,-0.01,0.00,0.03
34.759,-0.00,0.00,0.01,0.01
34.769,-0.05,-0.06,-0.03,0.09
34.780,-0.12,0.07,-0.05,0.15
34.790,-0.03,0.07,0.03,0.08
34.800,0.11,0.02,0.00,0.11
34.810,0.04,0.06,-0.03,0.08
34.820,0.00,-0.02,-0.02,0.03
34.830,-0.04,-0.00,-0.01,0.04
34.840,0.03,-0.07,-0.03,0.08
34.850,0.01,0.02,0.03,0.04
34.860,0.01,-0.04,-0.03,0.05
34.870,-0.06,0.05,-0.03,0.08
34.880,-0.02,0.01,0.00,0.02
34.890,-0.03,0.01,0.04,0.04
34.900,-0.03,0.02,0.01,0.04
34.911,-0.02,0.06,0.01,0.06
34.920,0.01,0.02,0.01,0.02
34.931,0.01,-0.01,-0.03,0.03
34.941,0.01,0.01,-0.01,0.02
34.951,-0.02,-0.01,-0.01,0.03
34.961,-0.02,-0.04,-0.04,0.06
34.971,0.08,-0.01,-0.03,0.09
34.981,0.16,-0.01,-0.02,0.16
34.991,-0.03,0.01,0.00,0.03
35.001,-0.14,-0.00,-0.05,0.15
35.011,-0.08,-0.06,-0.05,0.12
35.021,-0.02,-0.05,-0.06,0.08
35.031,-0.05,-0.07,0.01,0.09
35.042,-0.02,-0.01,0.03,0.03
35.051,0.12,0.01,0.05,0.13
35.062,0.18,0.05,-0.06,0.19
35.072,-0.15,0.01,-0.23,0.27
35.082,-0.19,0.01,-0.07,0.21
35.092,-0.06,0.06,-0.02,0.09
35.102,0.04,0.10,0.10,0.15
35.112,0.07,0.16,0.06,0.18
35.122,-0.06,0.08,0.17,0.20
35.132,-0.15,0.05,0.09,0.18
35.142,-0.13,-0.00,0.00,0.13
35.152,0.10,0.03,-0.10,0.15
35.162,0.10,0.11,-0.15,0.21
35.172,-0.11,0.08,-0.21,0.25
35.183,-0.12,-0.10,-0.18,0.24
35.192,-0.27,-0.13,-0.23,0.38
35.203,-0.34,-0.08,-0.28,0.44
35.213,-0.35,-0.16,-0.24,0.45
35.223,-0.54,-0.07,-0.30,0.62
35.233,-0.56,-0.07,-0.47,0.73
35.243,-0.55,-0.07,-0.74,0.93
35.253,-0.46,-0.16,-1.44,1.53
35.263,-0.60,-0.14,-2.32,2.40
35.273,-1.09,-0.26,-3.13,3.33
35.283,-1.40,-0.54,-3.44,3.75
35.293,-1.65,-0.85,-3.55,4.00
35.303,-1.57,-1.25,-3.38,3.94
35.313,-1.26,-1.34,-2.89,3.43
35.323,-0.97,-1.27,-2.31,2.81
35.333,-1.07,-1.40,-1.72,2.46
35.343,-1.38,-1.40,-1.18,2.29
35.354,-1.40,-1.52,-0.92,2.26
35.364,-1.21,-1.65,-0.97,2.26
35.374,-1.16,-1.62,-1.05,2.25
35.384,-1.08,-1.54,-1.32,2.30
35.394,-1.11,-1.54,-1.71,2.56
35.404,-1.34,-1.63,-2.05,2.94
35.414,-1.68,-1.96,-2.19,3.39
35.424,-1.92,-2.27,-1.91,3.53
35.434,-1.84,-2.37,-1.56,3.38
35.444,-1.52,-2.26,-1.23,2.99
35.454,-1.38,-2.26,-0.90,2.80
35.464,-1.49,-2.28,-0.76,2.83
35.474,-1.49,-2.29,-0.78,2.84
35.484,-1.26,-2.25,-0.80,2.70
35.495,-1.17,-2.15,-0.72,2.55
35.505,-1.12,-2.16,-0.63,2.51
35.515,-1.29,-2.18,-0.53,2.58
35.525,-1.62,-2.30,-0.42,2.84
35.535,-1.72,-2.39,-0.14,2.94
35.545,-1.38,-2.41,-0.18,2.78
35.555,-1.12,-2.17,-0.29,2.45
35.565,-1.24,-2.01,-0.42,2.40
35.575,-1.42,-2.11,-0.51,2.60
35.585,-1.64,-2.19,-0.46,2.77
35.595,-1.69,-2.11,-0.19,2.71
35.605,-1.62,-2.02,0.10,2.59
35.615,-1.29,-1.88,0.25,2.30
35.625,-0.79,-1.75,0.31,1.94
35.635,-0.63,-1.74,0.22,1.86
35.645,-0.69,-1.63,0.04,1.77
35.656,-0.83,-1.49,-0.22,1.72
35.666,-0.83,-1.41,-0.32,1.67
35.676,-0.67,-1.35,-0.13,1.51
35.686,-0.47,-1.29,-0.04,1.38
35.696,-0.38,-1.38,-0.48,1.51
35.706,-0.22,-1.40,-0.80,1.62
35.716,-0.06,-1.08,-0.41,1.16
35.726,-0.01,-1.01,0.17,1.02
35.736,0.03,-1.09,0.44,1.18
35.746,0.06,-1.09,0.31,1.13
35.756,-0.05,-0.97,0.34,1.03
35.766,-0.27,-0.84,0.53,1.03
35.776,-0.47,-0.90,0.63,1.19
35.786,-0.63,-0.99,0.84,1.45
35.797,-0.64,-1.03,1.22,1.72
35.807,-0.72,-0.98,1.32,1.79
35.818,-0.62,-1.00,1.03,1.56
35.827,-0.47,-1.01,0.90,1.44
35.837,-0.44,-0.86,0.99,1.38
35.847,-0.46,-0.90,0.99,1.41
35.857,-0.59,-0.92,0.73,1.32
35.867,-0.75,-0.81,0.36,1.16
35.877,-0.90,-0.70,-0.08,1.14
35.887,-0.95,-0.61,-0.37,1.19
35.897,-0.94,-0.49,-0.48,1.17
35.907,-1.02,-0.59,-0.65,1.35
35.917,-1.15,-0.64,-0.77,1.52
35.927,-1.25,-0.33,-0.70,1.47
35.938,-1.26,-0.11,-0.48,1.36
35.948,-0.99,-0.13,-0.11,1.01
35.958,-0.66,-0.33,0.30,0.79
35.968,-0.47,-0.30,0.82,0.99
35.978,-0.34,-0.19,1.29,1.35
35.988,-0.29,-0.32,1.31,1.38
35.998,-0.27,-0.46,1.05,1.18
36.008,-0.29,-0.38,0.80,0.94
36.018,-0.43,-0.34,0.46,0.71
36.028,-0.55,-0.28,0.32,0.70
36.038,-0.46,0.20,0.61,0.79
36.048,-0.48,0.51,0.96,1.18
36.058,-0.25,0.39,1.17,1.26
36.068,0.08,-0.04,0.94,0.94
36.078,0.26,-0.37,0.33,0.56
36.089,0.15,-0.40,-0.22,0.48
36.099,-0.02,-0.15,-0.43,0.46
36.109,-0.15,0.25,-0.02,0.29
36.119,-0.21,0.49,0.51,0.74
36.129,0.07,0.22,0.63,0.67
36.139,0.31,-0.16,0.53,0.63
36.149,0.28,-0.24,0.56,0.67
36.159,0.33,-0.17,0.54,0.66
36.169,0.40,-0.13,0.55,0.69
36.179,0.23,-0.10,0.59,0.64
36.189,0.00,-0.15,0.70,0.72
36.199,-0.05,-0.13,0.96,0.97
36.210,0.01,-0.20,1.01,1.03
36.220,0.19,-0.31,0.80,0.87
36.230,0.30,-0.29,0.48,0.64
36.240,0.28,-0.17,0.27,0.42
36.250,0.36,-0.10,0.18,0.41
36.260,0.47,-0.02,0.18,0.50
36.270,0.52,-0.01,0.12,0.54
36.280,0.67,-0.05,-0.12,0.68
36.290,0.63,0.04,-0.39,0.74
36.300,0.55,0.15,-0.64,0.85
36.310,0.43,0.30,-0.53,0.75
36.320,0.65,0.31,-0.16,0.74
36.330,0.99,0.18,0.13,1.01
36.340,0.93,0.13,0.29,0.98
36.350,0.59,-0.05,0.30,0.67
36.361,0.27,-0.27,0.14,0.40
36.371,-0.10,-0.46,-0.16,0.49
36.381,-0.41,-0.51,-0.49,0.82
36.391,-0.45,-0.41,-0.77,0.98
36.401,-0.23,-0.13,-0.85,0.89
36.411,0.21,0.26,-0.49,0.60
36.421,0.59,0.17,-0.03,0.61
36.431,0.72,-0.29,0.20,0.81
36.441,0.73,-0.51,0.26,0.93
36.451,0.51,-0.48,0.16,0.72
36.461,0.16,-0.28,-0.01,0.32
36.471,0.01,-0.06,-0.08,0.10
36.481,0.14,-0.04,-0.08,0.16
36.491,0.41,0.04,0.03,0.42
36.501,0.81,0.42,0.45,1.02
36.512,1.15,0.39,0.66,1.38
36.522,0.88,0.08,0.56,1.04
36.532,0.39,-0.08,0.37,0.54
36.542,0.01,-0.06,0.12,0.14
36.552,-0.21,0.10,-0.17,0.29
36.562,-0.24,0.25,-0.47,0.58
36.572,-0.22,0.30,-0.59,0.70
36.582,-0.00,0.15,-0.75,0.76
36.592,0.09,0.02,-0.83,0.83
36.602,-0.05,0.10,-0.97,0.97
36.612,-0.14,0.26,-1.04,1.08
36.622,-0.05,0.27,-1.00,1.04
36.632,0.04,0.09,-0.92,0.93
36.642,-0.08,0.01,-0.85,0.85
36.652,-0.23,0.03,-0.72,0.76
36.663,-0.20,-0.05,-0.53,0.56
36.673,0.03,-0.06,-0.16,0.17
36.683,0.31,0.03,0.12,0.33
36.693,0.50,0.00,0.15,0.53
