time,ax,ay,az,atotal
0.000,-0.26,0.12,0.92,0.97
0.010,0.12,-0.02,0.91,0.92
0.020,0.59,-0.14,0.93,1.11
0.030,0.79,-0.32,0.82,1.19
0.040,0.66,-0.40,0.69,1.03
0.050,0.46,-0.34,0.52,0.77
0.061,0.33,-0.25,0.21,0.46
0.071,0.23,-0.21,-0.11,0.33
0.081,0.15,-0.14,-0.34,0.40
0.091,0.09,0.04,-0.49,0.50
0.101,0.00,0.19,-0.60,0.63
0.111,-0.10,0.28,-0.79,0.84
0.121,-0.17,0.33,-1.00,1.06
0.131,-0.19,0.36,-1.13,1.20
0.141,-0.23,0.33,-1.18,1.25
0.151,-0.21,0.26,-1.20,1.25
0.161,-0.23,0.23,-1.19,1.23
0.171,-0.29,0.20,-1.11,1.16
0.181,-0.28,0.14,-0.99,1.04
0.191,-0.25,0.11,-0.87,0.91
0.201,-0.24,0.08,-0.74,0.78
0.211,-0.17,0.05,-0.58,0.61
0.221,-0.11,0.05,-0.38,0.40
0.232,-0.12,0.03,-0.24,0.27
0.242,-0.09,0.02,-0.12,0.15
0.252,-0.05,-0.05,0.04,0.08
0.262,0.01,-0.13,0.26,0.29
0.272,0.15,-0.18,0.44,0.50
0.282,0.30,-0.19,0.59,0.69
0.292,0.33,-0.23,0.64,0.75
0.302,0.47,-0.31,0.56,0.80
0.312,0.82,-0.38,0.54,1.05
0.322,1.16,-0.62,0.69,1.49
0.332,0.82,-0.47,0.77,1.22
0.342,1.05,-0.38,0.85,1.40
0.352,1.30,-0.53,0.85,1.64
0.362,1.46,-0.71,0.99,1.90
0.373,1.40,-0.70,1.12,1.93
0.382,1.17,-0.64,1.20,1.79
0.393,0.86,-0.51,1.08,1.47
0.403,0.79,-0.27,0.76,1.13
0.413,0.61,-0.14,0.56,0.84
0.423,0.58,-0.14,0.44,0.74
0.433,0.56,-0.12,0.44,0.72
0.443,0.42,-0.12,0.40,0.59
0.453,0.11,-0.15,0.38,0.42
0.463,-0.01,-0.08,0.58,0.58
0.473,0.01,-0.00,0.72,0.72
0.483,0.08,-0.01,0.71,0.71
0.493,0.16,-0.09,0.63,0.66
0.503,0.30,-0.24,0.71,0.81
0.513,0.32,-0.39,0.81,0.96
0.523,0.45,-0.52,1.06,1.27
0.534,0.42,-0.74,1.42,1.66
0.544,0.47,-0.98,1.79,2.09
0.554,0.91,-1.13,1.95,2.43
0.564,1.24,-1.23,1.81,2.51
0.574,1.41,-1.40,1.94,2.78
0.584,1.75,-1.54,2.21,3.22
0.594,2.35,-1.73,2.50,3.84
0.604,2.90,-2.01,2.93,4.59
0.614,2.90,-2.26,3.34,4.97
0.624,2.99,-2.29,3.43,5.09
0.634,2.65,-2.52,3.16,4.83
0.644,2.63,-2.51,2.82,4.60
0.655,2.70,-2.35,2.19,4.20
0.665,2.57,-2.33,1.48,3.77
0.675,2.25,-2.37,0.99,3.41
0.685,1.85,-2.38,0.78,3.12
0.695,1.84,-2.20,0.76,2.97
0.705,2.03,-1.96,0.81,2.93
0.715,1.88,-1.88,0.98,2.83
0.725,1.55,-1.68,1.13,2.55
0.735,0.50,-1.81,0.40,1.92
0.745,-0.42,-1.70,-0.39,1.79
0.755,0.31,-0.67,-0.33,0.81
0.765,1.02,-0.46,0.28,1.16
0.775,0.91,-0.99,1.15,1.77
0.785,0.48,-1.16,1.60,2.03
0.795,0.31,-1.15,1.70,2.08
0.805,-0.42,-1.46,0.70,1.67
0.815,-1.52,-1.80,-2.56,3.48
0.826,0.19,0.41,-2.73,2.76
0.836,-0.01,0.51,-1.13,1.24
0.846,-0.91,-0.28,0.03,0.95
0.856,-0.64,-0.16,0.91,1.12
0.866,-0.37,-0.10,1.16,1.22
0.876,0.42,-0.19,0.87,0.99
0.886,1.39,-0.32,0.44,1.50
0.896,1.73,-0.38,0.36,1.80
0.906,1.32,-0.83,-0.00,1.56
0.916,1.03,-1.40,0.56,1.82
0.926,1.48,-1.79,1.18,2.60
0.936,0.93,-1.58,1.14,2.16
0.946,-3.53,-0.60,1.02,3.72
0.957,-6.16,-0.30,0.83,6.22
0.967,-6.12,0.18,-0.72,6.16
0.977,-2.48,0.64,-2.33,3.46
0.987,-2.21,0.30,-2.22,3.14
0.997,-1.27,-0.48,-2.45,2.81
1.007,0.80,-1.49,-2.85,3.32
1.017,2.33,-2.62,-1.86,3.97
1.027,2.20,-2.89,1.05,3.78
1.037,0.83,-1.85,2.65,3.34
1.047,0.46,-0.97,2.86,3.05
1.057,-0.02,-0.86,1.63,1.84
1.067,-0.23,-1.02,0.12,1.05
1.077,0.05,-1.05,-0.59,1.20
1.087,0.55,-0.51,-0.86,1.14
1.097,0.02,-0.12,-0.05,0.13
1.108,-1.23,0.11,1.84,2.22
1.118,-0.33,-0.22,0.14,0.42
1.128,-0.66,-0.33,-0.46,0.86
1.138,-1.06,-0.11,0.00,1.07
1.148,-0.84,-0.19,-0.10,0.87
1.158,-0.58,-0.15,0.28,0.66
1.168,0.08,0.03,0.77,0.78
1.178,0.56,0.02,0.77,0.95
1.188,0.61,-0.17,0.42,0.76
1.198,0.31,-0.35,-0.12,0.48
1.208,-0.12,-0.48,-0.79,0.93
1.218,-0.65,-0.52,-1.33,1.56
1.228,-0.72,-0.48,-1.85,2.04
1.238,-0.37,-0.37,-2.13,2.19
1.248,-0.15,-0.41,-2.46,2.50
1.259,0.24,-0.25,-2.93,2.95
1.269,0.20,0.07,-2.33,2.34
1.279,-0.51,-0.11,-1.66,1.74
1.289,-0.61,-0.41,-1.67,1.83
1.299,0.82,1.20,-1.64,2.19
1.309,2.38,4.94,-0.11,5.48
1.319,0.69,2.66,0.72,2.84
1.329,0.30,1.46,0.00,1.49
1.339,0.60,1.48,-1.32,2.07
1.349,0.55,1.44,-1.72,2.31
1.359,0.54,1.46,-1.44,2.13
1.369,0.63,1.55,-1.10,2.00
1.379,0.44,1.56,-0.77,1.80
1.389,0.18,1.55,-0.46,1.63
1.400,-0.13,1.43,-0.33,1.47
1.410,-0.43,1.03,-0.57,1.26
1.420,-0.71,0.66,-0.88,1.31
1.430,-0.96,0.70,-1.04,1.57
1.440,-1.15,0.78,-0.90,1.65
1.450,-1.35,0.66,-0.55,1.60
1.460,-1.41,0.51,-0.41,1.56
1.470,-1.42,0.30,-0.26,1.47
1.480,-1.33,0.23,-0.14,1.36
1.490,-1.20,0.19,-0.04,1.22
1.500,-1.24,0.05,-0.09,1.25
1.510,-1.28,-0.12,-0.20,1.30
1.520,-1.10,-0.29,-0.21,1.16
1.530,-0.92,-0.44,0.04,1.02
1.541,-0.76,-0.80,-0.23,1.13
1.551,-0.54,-1.19,-0.30,1.35
1.561,-0.48,-1.41,-0.35,1.53
1.571,-0.57,-1.48,-0.29,1.62
1.581,-0.87,-1.78,0.06,1.98
1.591,-1.01,-2.27,0.37,2.51
1.601,-0.97,-2.61,0.51,2.83
1.611,-0.83,-2.72,0.52,2.89
1.621,-0.71,-2.68,0.53,2.82
1.631,-0.62,-2.60,0.49,2.72
1.641,-0.45,-2.60,0.43,2.67
1.651,-0.27,-2.63,0.49,2.69
1.661,-0.35,-2.58,0.63,2.68
1.671,-0.45,-2.56,0.79,2.72
1.681,-0.55,-2.57,0.84,2.76
1.692,-0.55,-2.65,0.66,2.78
1.702,-0.45,-2.67,0.50,2.76
1.712,-0.50,-2.64,0.39,2.71
1.722,-0.31,-2.43,0.24,2.46
1.732,0.01,-2.14,-0.13,2.15
1.742,0.14,-1.54,0.43,1.61
1.752,0.14,-0.96,0.73,1.21
1.762,0.20,-0.66,1.32,1.49
1.772,0.28,-0.53,2.06,2.15
1.782,0.91,-0.38,1.82,2.07
1.792,0.80,-0.33,1.88,2.07
1.802,0.09,-0.53,1.30,1.40
1.812,0.42,-0.60,0.27,0.78
1.822,0.36,-0.67,-0.44,0.88
1.832,0.12,-0.30,-0.39,0.50
1.843,-0.43,0.07,0.87,0.97
1.853,0.05,0.51,1.15,1.26
1.863,0.70,0.59,1.34,1.62
1.873,0.40,0.52,1.51,1.65
1.883,0.25,0.33,0.69,0.80
1.893,0.52,0.21,0.12,0.57
1.903,0.28,0.12,0.30,0.43
1.913,0.16,0.28,0.44,0.55
1.923,0.15,0.37,0.82,0.91
1.933,-0.13,0.79,1.29,1.52
1.943,-0.24,1.00,0.85,1.33
1.953,-1.46,0.55,-0.59,1.67
1.963,-2.22,-0.41,-1.34,2.63
1.973,-2.56,-0.77,-0.98,2.85
1.984,-1.81,-0.73,-0.86,2.13
1.994,-1.40,-0.70,-0.47,1.63
2.004,-0.53,-0.62,0.14,0.83
2.014,0.15,-0.47,0.53,0.72
2.024,0.66,0.12,0.94,1.15
2.034,0.78,0.49,1.38,1.66
2.044,0.24,0.66,0.88,1.13
2.054,-0.60,0.75,-0.27,1.00
2.064,-2.07,0.67,-1.14,2.46
2.074,-2.63,0.36,-2.51,3.65
2.084,-1.96,0.18,-1.35,2.39
2.094,-0.79,0.45,-0.24,0.94
2.104,0.17,0.37,-0.08,0.42
2.114,0.80,-0.07,-0.03,0.81
2.125,1.35,-0.74,-0.99,1.83
2.135,1.06,-1.40,-1.39,2.24
2.144,1.04,-1.80,-2.52,3.27
2.155,1.57,-1.42,-2.02,2.93
2.165,1.40,-0.47,-1.57,2.16
2.175,1.12,0.03,-1.06,1.54
2.185,1.22,1.04,-0.22,1.62
2.195,1.28,1.70,0.18,2.14
2.205,1.13,2.26,0.06,2.52
2.215,0.69,1.86,-0.04,1.99
2.225,0.14,0.91,-0.50,1.05
2.235,-0.77,0.12,-1.78,1.94
2.245,-1.08,-0.43,-2.61,2.86
2.255,-1.29,-0.28,-2.13,2.51
2.265,-1.63,0.01,-0.86,1.84
2.275,-1.47,0.52,-0.33,1.59
2.285,-1.51,1.15,-0.30,1.92
2.296,-0.64,1.28,-0.29,1.46
2.306,-1.20,0.54,0.97,1.63
2.316,-1.37,-0.53,1.48,2.09
2.326,-0.28,-1.73,0.76,1.91
2.336,-0.68,-1.51,-0.40,1.71
2.346,-1.40,-2.11,-0.12,2.54
2.356,-1.90,-2.53,-0.90,3.29
2.366,-2.27,-2.13,-0.93,3.25
2.376,-1.90,-2.06,-0.78,2.91
2.386,-1.54,-1.61,0.01,2.23
2.396,-0.84,-1.15,0.11,1.43
2.406,-0.12,-1.07,-0.10,1.08
2.416,0.85,-0.97,0.15,1.29
2.427,1.59,-0.88,0.50,1.88
2.437,1.28,-0.72,0.79,1.66
2.447,0.66,-0.37,0.47,0.89
2.457,0.42,0.08,0.31,0.52
2.467,0.31,0.36,0.26,0.54
2.477,0.32,0.60,0.06,0.69
2.487,0.48,1.06,-0.18,1.18
2.497,0.49,1.20,-0.25,1.32
2.507,0.39,0.92,-0.13,1.01
2.517,0.93,1.13,0.21,1.48
2.527,0.32,1.64,1.01,1.96
2.537,-0.58,1.78,1.65,2.49
2.547,-0.48,1.23,1.39,1.92
2.557,-0.16,0.84,1.01,1.32
2.567,0.03,0.96,0.84,1.28
2.578,0.01,1.50,0.58,1.60
2.588,-0.15,1.93,0.50,2.00
2.598,-0.08,2.27,0.12,2.27
2.608,0.03,2.41,0.13,2.41
2.618,-0.08,2.41,-0.71,2.51
2.628,-0.90,1.70,-0.55,2.00
2.638,-1.98,-0.12,1.20,2.32
2.648,-1.55,-0.94,1.45,2.32
2.658,-1.59,-0.83,1.31,2.22
2.668,-1.05,-0.50,-0.12,1.17
2.678,0.80,-0.28,-2.47,2.61
2.688,5.04,0.59,-5.00,7.12
2.698,6.72,1.05,-5.15,8.52
2.708,3.64,0.34,-2.74,4.57
2.718,0.59,-0.25,-1.21,1.37
2.729,-0.70,-0.12,-0.92,1.16
2.739,-1.26,0.80,-0.63,1.62
2.749,-1.84,2.20,0.31,2.89
2.759,-0.23,2.44,0.84,2.59
2.769,0.55,1.23,1.96,2.38
2.779,-0.17,0.06,2.28,2.29
2.789,-0.38,-0.37,1.79,1.87
2.799,0.68,-0.32,2.10,2.23
2.809,0.65,-0.29,3.10,3.18
2.819,-0.13,-0.70,3.61,3.68
2.829,-0.13,-1.36,2.97,3.27
2.839,0.32,-1.13,0.77,1.40
2.849,-0.01,-0.83,-1.29,1.53
2.859,-0.33,-0.69,-1.58,1.76
2.870,-0.07,-0.84,-0.73,1.11
2.880,0.08,-1.96,-0.16,1.97
2.890,-0.45,-3.45,-0.07,3.48
2.900,-0.71,-2.25,-1.64,2.87
2.910,-0.79,0.17,-1.80,1.97
2.920,-0.41,0.92,-0.14,1.02
2.930,0.10,0.00,0.56,0.57
2.940,0.55,-1.29,-0.07,1.40
2.950,0.62,-1.82,-1.04,2.19
2.960,0.45,-1.72,-1.02,2.05
2.970,0.03,-1.11,-0.41,1.18
2.980,-0.80,-0.66,0.22,1.06
2.990,-1.50,-0.26,0.63,1.65
3.000,-1.99,0.18,0.55,2.08
3.011,-2.23,0.63,0.87,2.47
3.020,-1.99,1.25,1.67,2.88
3.031,-1.09,1.71,1.00,2.26
3.041,-0.67,1.36,0.07,1.52
3.051,0.36,0.26,-0.51,0.68
3.061,0.28,-1.62,-0.13,1.65
3.071,1.97,-0.96,-1.91,2.90
3.081,2.25,-0.92,-3.14,3.97
3.091,0.68,-1.59,-0.73,1.88
3.101,1.20,-0.62,0.26,1.38
3.111,0.57,0.14,0.66,0.89
3.121,0.06,0.53,0.77,0.93
3.131,0.03,1.12,-0.03,1.12
3.141,-0.89,1.33,-0.32,1.64
3.151,-0.38,0.55,0.51,0.84
3.162,0.28,-0.18,-0.17,0.37
3.172,0.18,-0.28,-0.51,0.61
3.182,0.30,-0.02,-0.88,0.93
3.192,0.37,0.01,-0.33,0.50
3.202,1.01,0.03,0.74,1.25
3.212,2.00,-0.56,0.65,2.18
3.222,1.23,-1.11,-1.54,2.27
3.232,2.23,-0.72,-1.58,2.83
3.242,2.01,-0.80,-0.31,2.19
3.252,1.61,-1.22,0.38,2.06
3.262,1.67,-1.31,0.21,2.14
3.272,1.42,-1.18,0.22,1.86
3.282,1.54,-0.73,0.27,1.73
3.292,1.25,-0.24,0.07,1.27
3.302,0.77,-0.14,0.31,0.84
3.313,0.67,0.58,0.71,1.13
3.323,0.48,1.75,0.12,1.82
3.333,0.08,2.62,-0.52,2.67
3.343,-0.04,2.92,-0.83,3.04
3.353,-0.10,3.39,-0.54,3.44
3.363,-0.66,3.30,0.20,3.37
3.373,-0.54,3.62,0.70,3.73
3.383,-0.78,3.21,0.78,3.40
3.393,-0.89,2.22,0.78,2.52
3.403,-1.05,1.37,1.07,2.03
3.413,0.41,1.88,0.81,2.09
3.423,-0.96,0.50,0.16,1.09
3.433,0.45,0.30,-1.46,1.56
3.444,0.76,0.78,-1.12,1.56
3.453,0.76,0.98,-1.06,1.63
3.464,1.28,0.86,-0.70,1.69
3.474,1.51,0.75,-0.43,1.74
3.484,1.83,0.74,-0.37,2.00
3.494,1.83,0.58,-0.38,1.95
3.504,1.67,0.40,-0.27,1.74
3.514,1.49,0.26,-0.36,1.56
3.524,-0.09,-0.15,-0.97,0.98
3.534,-0.79,-0.58,-0.83,1.28
3.544,0.28,-0.35,-0.60,0.75
3.554,1.01,-0.17,-0.17,1.04
3.564,1.20,0.12,0.42,1.28
3.574,0.87,0.22,0.82,1.22
3.584,0.42,-0.02,1.15,1.23
3.595,0.41,0.16,1.28,1.35
3.604,0.39,0.14,1.19,1.26
3.615,0.34,-0.08,0.80,0.87
3.625,-0.39,-0.15,-0.01,0.42
3.635,-0.58,-0.47,-0.66,1.00
3.645,-0.52,-0.80,-1.16,1.51
3.655,-0.63,-0.85,-0.86,1.36
3.665,-0.91,-0.47,0.07,1.02
3.675,-1.08,-0.28,0.57,1.26
3.685,-1.46,-0.13,0.42,1.52
3.695,-1.48,-0.00,0.38,1.53
3.705,-1.07,0.15,0.60,1.24
3.715,-0.66,0.46,0.72,1.08
3.725,-0.55,0.85,0.70,1.23
3.735,-0.67,0.98,0.59,1.33
3.745,-0.64,0.97,0.45,1.25
3.756,-0.45,1.03,0.21,1.14
3.766,-0.23,1.01,-0.05,1.04
3.776,0.04,0.77,-0.21,0.80
3.786,0.20,0.50,-0.35,0.65
3.796,0.01,0.40,-0.41,0.57
3.806,-0.20,0.42,-0.22,0.51
3.816,0.38,0.33,0.84,0.98
3.826,0.94,-0.08,1.91,2.13
3.836,0.36,-0.60,1.05,1.26
3.846,0.03,-1.07,-0.68,1.27
3.856,0.08,-1.01,-1.95,2.20
3.866,0.11,-0.39,-1.98,2.02
3.876,0.07,-0.17,-0.97,0.98
3.887,0.08,0.08,-0.37,0.38
3.897,-0.08,0.29,-0.14,0.33
3.907,0.43,0.16,-0.55,0.72
3.917,0.17,0.18,-0.47,0.54
3.927,-0.36,0.19,-0.03,0.41
3.937,-0.58,0.30,0.88,1.09
3.947,-0.62,0.34,1.16,1.36
3.957,-0.19,0.19,0.94,0.98
3.967,0.46,-0.04,0.39,0.61
3.977,0.83,-0.15,-0.06,0.85
3.987,0.71,-0.05,-0.16,0.73
3.997,0.47,-0.00,-0.15,0.49
4.007,0.41,-0.07,-0.08,0.42
4.017,0.36,-0.06,-0.06,0.37
4.028,0.24,0.08,0.01,0.25
4.038,0.18,0.18,0.01,0.25
4.048,0.15,0.16,-0.06,0.23
4.058,0.31,0.09,-0.16,0.36
4.068,0.48,0.03,-0.18,0.52
4.078,0.61,-0.01,-0.10,0.62
4.088,0.58,-0.09,-0.02,0.59
4.098,0.19,0.07,0.05,0.21
4.108,-0.43,0.52,0.10,0.68
4.118,-0.61,0.58,0.21,0.87
4.128,-0.48,0.48,0.23,0.71
4.138,-0.23,0.29,0.12,0.39
4.148,0.09,0.04,0.02,0.10
4.158,0.46,-0.25,-0.14,0.54
4.168,0.51,-0.25,-0.31,0.64
4.178,0.39,-0.31,-0.28,0.57
4.189,0.35,-0.40,-0.13,0.54
4.199,0.25,-0.30,-0.01,0.39
4.209,0.12,-0.15,-0.01,0.19
4.219,-0.24,0.07,-0.06,0.26
4.229,-0.39,0.35,-0.13,0.54
4.239,-0.33,0.56,-0.04,0.65
4.249,-0.08,0.53,0.02,0.54
4.259,0.02,0.43,0.04,0.43
4.269,-0.04,0.26,-0.01,0.26
4.279,0.07,-0.03,-0.06,0.10
4.289,0.25,-0.22,-0.06,0.34
4.299,0.32,-0.11,0.07,0.34
4.309,0.18,-0.22,0.15,0.32
4.320,-0.00,-0.09,0.05,0.10
4.330,0.11,0.35,0.13,0.39
4.340,0.44,0.66,0.29,0.85
4.350,0.73,0.44,0.12,0.86
4.360,0.81,0.16,-0.22,0.85
4.370,0.66,-0.09,-0.38,0.76
4.380,0.61,-0.43,-0.41,0.85
4.390,0.76,-0.60,-0.43,1.06
4.400,0.74,-0.56,-0.27,0.96
4.410,0.66,-0.29,-0.00,0.72
4.420,0.57,0.01,0.22,0.61
4.430,0.57,0.18,0.19,0.63
4.440,0.52,0.36,0.05,0.63
4.450,0.39,0.53,0.04,0.66
4.460,0.09,0.73,0.15,0.75
4.471,-0.16,0.84,0.35,0.93
4.480,-0.44,0.85,0.49,1.08
4.491,-0.63,0.78,0.49,1.11
4.501,-0.57,0.48,0.36,0.83
4.511,-0.43,0.25,0.20,0.54
4.521,-0.34,0.11,0.06,0.36
4.531,-0.29,0.01,0.01,0.29
4.541,-0.20,-0.17,-0.03,0.27
4.551,-0.17,-0.25,-0.08,0.31
4.561,-0.04,-0.27,-0.17,0.32
4.571,0.02,-0.28,-0.22,0.36
4.581,0.00,-0.25,-0.25,0.36
4.591,-0.03,-0.16,-0.24,0.29
4.601,0.00,-0.03,-0.20,0.21
4.611,-0.01,0.12,-0.12,0.17
4.621,0.06,0.19,-0.03,0.20
4.632,0.06,0.21,0.02,0.22
4.642,0.01,0.22,0.07,0.23
4.652,-0.08,0.21,0.09,0.24
4.662,-0.24,0.17,0.06,0.30
4.672,-0.31,0.18,0.00,0.36
4.682,-0.14,0.15,-0.09,0.23
4.692,-0.03,0.10,-0.19,0.22
4.702,0.06,0.07,-0.18,0.21
4.712,0.09,0.06,-0.12,0.16
4.722,0.10,0.04,-0.03,0.11
4.732,0.13,0.06,0.06,0.15
4.742,0.18,0.10,0.08,0.22
4.752,0.22,0.12,0.06,0.26
4.762,0.21,0.14,0.03,0.26
4.773,0.21,0.14,0.01,0.25
4.783,0.21,0.13,0.01,0.25
4.793,0.16,0.11,0.00,0.19
4.803,0.13,0.07,-0.00,0.15
4.813,0.10,0.04,0.00,0.11
4.823,0.10,0.03,0.01,0.10
4.833,0.08,0.05,-0.00,0.09
4.843,0.06,0.08,-0.01,0.10
4.853,0.04,0.12,-0.01,0.12
4.863,0.01,0.12,-0.01,0.12
4.873,-0.01,0.11,0.01,0.11
4.883,-0.02,0.09,0.02,0.09
4.893,-0.06,0.07,-0.00,0.09
4.903,-0.04,0.06,-0.02,0.08
4.913,-0.05,0.03,-0.05,0.08
4.924,-0.05,0.03,-0.08,0.10
4.934,-0.08,0.06,-0.08,0.13
4.944,-0.10,0.07,-0.06,0.13
4.954,-0.08,0.08,-0.02,0.12
4.964,-0.06,0.12,-0.00,0.13
4.974,-0.05,0.13,-0.01,0.14
4.984,-0.04,0.12,-0.03,0.13
4.994,-0.04,0.10,-0.05,0.12
5.004,-0.04,0.07,-0.05,0.09
5.014,-0.03,0.05,-0.02,0.06
5.024,-0.02,0.07,-0.03,0.08
5.034,0.02,0.07,-0.05,0.09
5.044,0.04,0.10,-0.05,0.12
5.054,0.05,0.11,-0.02,0.12
5.065,0.06,0.11,-0.00,0.12
5.075,0.07,0.11,-0.00,0.13
5.085,0.06,0.12,0.02,0.13
5.095,0.09,0.09,0.04,0.14
5.105,0.13,0.08,0.05,0.16
5.115,0.12,0.05,0.02,0.14
5.125,0.12,0.03,0.00,0.12
5.135,0.10,0.03,-0.02,0.11
5.145,0.09,0.00,-0.03,0.10
5.155,0.09,0.03,-0.02,0.10
5.165,0.08,0.03,-0.03,0.09
5.175,0.08,0.05,-0.03,0.10
5.185,0.09,0.07,-0.04,0.12
5.195,0.11,0.09,-0.03,0.14
5.206,0.08,0.12,-0.00,0.14
5.216,0.09,0.11,0.02,0.14
5.226,0.11,0.14,0.02,0.18
5.236,0.12,0.14,0.01,0.19
5.246,0.11,0.17,0.01,0.20
5.256,0.12,0.18,-0.00,0.21
5.266,0.11,0.19,-0.02,0.22
5.276,0.11,0.18,-0.02,0.21
5.286,0.15,0.20,-0.01,0.25
5.296,0.13,0.20,0.00,0.24
5.306,0.13,0.20,0.02,0.24
5.316,0.15,0.14,-0.02,0.21
5.326,0.13,0.11,-0.02,0.17
5.336,0.07,0.07,-0.03,0.11
5.346,0.04,0.06,-0.04,0.08
5.357,0.02,0.03,-0.02,0.05
5.367,0.02,0.04,-0.00,0.05
5.377,0.05,0.02,0.01,0.05
5.387,0.07,0.02,0.01,0.07
5.397,0.06,0.04,0.00,0.07
5.407,0.08,0.04,0.01,0.09
5.417,0.08,0.04,0.01,0.09
5.427,0.07,0.05,0.02,0.09
5.437,0.10,0.07,0.00,0.12
5.447,0.14,0.09,0.00,0.16
5.457,0.17,0.09,-0.02,0.20
5.467,0.17,0.08,-0.00,0.19
5.477,0.17,0.07,0.01,0.18
5.487,0.19,0.09,0.02,0.21
5.497,0.18,0.09,0.03,0.20
5.508,0.15,0.09,0.03,0.18
5.518,0.13,0.07,0.01,0.15
5.528,0.12,0.06,0.00,0.13
5.538,0.07,0.06,-0.01,0.09
5.548,0.06,0.05,-0.01,0.08
5.558,0.06,0.06,-0.02,0.08
5.568,0.01,0.06,-0.03,0.07
5.578,-0.01,0.06,-0.04,0.07
5.588,-0.06,0.05,-0.04,0.09
5.598,-0.08,0.07,-0.05,0.12
5.608,-0.09,0.05,-0.03,0.11
5.618,-0.10,0.05,-0.02,0.11
5.628,-0.07,0.05,0.01,0.09
5.638,-0.05,0.08,0.03,0.09
5.649,-0.04,0.08,0.03,0.10
5.659,-0.03,0.08,0.05,0.10
5.669,-0.01,0.08,0.02,0.08
5.679,-0.01,0.09,0.00,0.09
5.689,-0.02,0.08,-0.01,0.08
5.699,-0.01,0.10,-0.03,0.10
5.709,-0.02,0.09,-0.05,0.11
5.719,-0.04,0.08,-0.05,0.10
5.729,-0.05,0.07,-0.06,0.11
5.739,-0.05,0.07,-0.05,0.10
5.749,-0.05,0.08,-0.05,0.11
5.759,-0.04,0.09,-0.03,0.11
5.769,-0.02,0.08,-0.04,0.09
5.779,-0.02,0.07,-0.03,0.08
5.789,0.02,0.07,-0.03,0.08
5.800,0.03,0.08,-0.01,0.09
5.810,0.07,0.06,-0.03,0.10
5.820,0.10,0.04,-0.04,0.12
5.830,0.11,0.01,-0.03,0.12
5.840,0.08,0.02,-0.03,0.09
5.850,0.09,0.02,-0.02,0.10
5.860,0.09,0.03,0.00,0.10
5.870,0.08,0.03,0.03,0.09
5.880,0.07,0.03,0.03,0.08
5.890,0.05,0.07,0.01,0.09
5.900,0.06,0.12,0.01,0.13
5.910,0.01,0.11,-0.01,0.11
5.921,-0.01,0.11,-0.02,0.11
5.930,-0.02,0.09,-0.02,0.10
5.940,-0.03,0.06,-0.05,0.08
5.951,0.01,0.06,-0.09,0.11
5.961,0.04,0.08,-0.07,0.12
5.971,0.06,0.07,-0.02,0.09
5.981,0.09,0.05,0.03,0.10
5.991,0.09,0.02,0.04,0.10
6.001,0.10,0.04,0.04,0.12
6.011,0.08,0.04,0.02,0.10
6.021,0.08,0.05,-0.01,0.09
6.031,0.07,0.04,-0.02,0.09
6.041,0.06,0.04,-0.02,0.07
6.051,0.05,0.04,-0.01,0.06
6.061,0.05,0.06,-0.00,0.07
6.071,0.04,0.06,-0.01,0.07
6.082,0.05,0.04,0.00,0.07
6.092,0.07,0.05,0.01,0.09
6.102,0.08,0.04,0.02,0.10
6.112,0.05,0.04,-0.01,0.07
6.122,0.06,0.04,-0.00,0.07
6.132,0.05,0.05,-0.02,0.07
6.142,0.07,0.04,-0.02,0.08
6.152,0.08,0.03,-0.02,0.09
6.162,0.11,0.05,0.00,0.12
6.172,0.11,0.06,0.01,0.12
6.182,0.09,0.06,0.01,0.11
6.192,0.11,0.05,-0.00,0.12
6.202,0.06,0.07,-0.01,0.09
6.212,0.05,0.08,-0.02,0.10
6.222,0.03,0.10,0.01,0.10
6.233,0.02,0.08,-0.01,0.09
6.243,-0.02,0.11,-0.01,0.11
6.253,-0.02,0.08,-0.03,0.09
6.263,-0.04,0.07,-0.02,0.08
6.273,-0.04,0.07,-0.04,0.09
6.283,-0.04,0.06,-0.04,0.08
6.293,-0.04,0.07,-0.04,0.09
6.303,-0.06,0.08,-0.04,0.11
6.313,-0.03,0.09,-0.06,0.11
6.323,-0.04,0.09,-0.04,0.10
6.333,-0.02,0.07,-0.01,0.07
6.343,-0.02,0.06,0.00,0.06
6.353,-0.01,0.04,-0.01,0.04
6.363,-0.01,0.02,-0.00,0.02
6.374,0.01,0.02,-0.00,0.02
6.384,0.01,0.03,-0.01,0.03
6.394,0.04,0.04,-0.01,0.06
6.404,0.04,0.05,-0.00,0.06
6.414,0.05,0.07,-0.01,0.09
6.424,0.07,0.07,-0.00,0.10
6.434,0.08,0.07,0.01,0.11
6.444,0.07,0.05,0.01,0.08
6.454,0.07,0.03,0.00,0.08
6.464,0.06,0.02,-0.02,0.07
6.474,0.04,0.03,-0.03,0.06
6.484,0.04,0.03,-0.03,0.06
6.494,0.02,0.04,-0.05,0.07
6.505,0.04,0.05,-0.05,0.09
6.515,0.05,0.04,-0.03,0.07
6.525,0.06,0.07,-0.02,0.09
6.534,0.04,0.06,0.01,0.08
6.545,0.03,0.06,0.03,0.08
6.555,0.03,0.03,0.05,0.06
6.565,0.05,0.01,0.04,0.06
6.575,0.05,-0.03,0.03,0.07
6.585,0.05,-0.02,0.01,0.05
6.595,0.03,0.03,-0.02,0.05
6.605,0.03,0.05,-0.04,0.07
6.615,0.03,0.06,-0.06,0.10
6.625,0.02,0.07,-0.06,0.09
6.635,0.02,0.07,-0.02,0.07
6.645,0.01,0.08,-0.00,0.08
6.655,-0.00,0.08,-0.02,0.08
6.665,-0.02,0.06,-0.04,0.07
6.676,-0.03,0.06,-0.02,0.07
6.686,-0.03,0.07,-0.00,0.07
6.696,-0.02,0.06,0.02,0.06
6.706,0.01,0.05,0.04,0.06
6.716,0.03,0.02,0.03,0.05
6.726,0.05,0.03,-0.01,0.06
6.736,0.08,0.05,-0.06,0.11
6.746,0.07,0.03,-0.08,0.11
6.756,0.06,0.04,-0.08,0.10
6.766,0.06,0.03,-0.05,0.08
6.776,0.06,0.01,-0.01,0.06
6.786,0.07,0.01,0.02,0.07
6.796,0.05,0.03,0.05,0.08
6.806,0.03,0.03,0.05,0.07
6.817,-0.00,0.04,0.03,0.05
6.827,-0.01,0.03,0.01,0.03
6.837,-0.03,0.05,-0.00,0.06
6.847,-0.02,0.07,-0.04,0.09
6.857,-0.04,0.08,-0.06,0.11
6.867,-0.04,0.08,-0.04,0.10
6.877,-0.03,0.09,-0.05,0.11
6.887,0.00,0.09,-0.04,0.09
6.897,0.00,0.05,-0.01,0.05
6.907,-0.01,0.05,-0.01,0.05
6.917,0.01,0.04,0.01,0.04
6.927,0.03,0.03,0.01,0.04
6.937,0.03,0.03,0.01,0.04
6.947,0.07,0.04,0.00,0.08
6.957,0.10,0.05,-0.01,0.11
6.968,0.10,0.05,-0.00,0.12
6.978,0.09,0.05,-0.01,0.11
6.988,0.09,0.03,-0.00,0.10
6.998,0.06,0.03,-0.01,0.07
7.008,0.05,0.02,0.01,0.05
7.018,0.06,0.03,0.02,0.07
7.028,0.03,0.03,0.03,0.05
7.038,0.01,0.02,0.02,0.04
7.048,0.01,0.04,0.01,0.05
7.058,0.01,0.04,0.01,0.05
7.068,0.02,0.05,-0.00,0.05
7.078,0.03,0.06,-0.03,0.07
7.088,0.03,0.07,-0.03,0.08
7.098,0.00,0.05,-0.02,0.05
7.109,0.01,0.06,-0.00,0.06
7.119,0.03,0.05,-0.02,0.06
7.129,0.02,0.05,-0.01,0.05
7.139,0.03,0.06,-0.00,0.07
7.149,0.03,0.05,0.01,0.06
7.159,0.05,0.04,0.00,0.06
7.169,0.03,0.03,-0.00,0.04
7.179,0.01,0.04,-0.01,0.04
7.189,0.03,0.04,-0.03,0.06
7.199,0.02,0.04,-0.05,0.07
7.209,0.02,0.04,-0.04,0.06
7.219,0.01,0.06,-0.03,0.06
7.229,0.02,0.05,-0.02,0.06
7.239,0.03,0.03,0.02,0.05
7.249,0.02,0.05,0.02,0.06
7.260,0.00,0.04,0.04,0.05
7.270,0.02,0.01,0.03,0.04
7.280,0.03,0.01,0.03,0.04
7.290,0.01,0.00,-0.01,0.01
7.300,0.03,0.01,-0.05,0.05
7.310,0.05,0.03,-0.04,0.07
7.320,0.04,0.05,-0.02,0.07
7.330,0.04,0.08,0.01,0.09
7.340,0.04,0.09,0.00,0.10
7.350,0.02,0.10,0.03,0.10
7.360,0.01,0.09,0.02,0.09
7.370,-0.02,0.07,-0.00,0.07
7.380,-0.01,0.03,-0.02,0.04
7.390,0.00,0.03,-0.03,0.04
7.401,0.02,0.04,-0.02,0.04
7.411,0.05,0.03,-0.02,0.06
7.421,0.05,0.04,-0.03,0.07
7.431,0.05,0.04,-0.01,0.06
7.441,0.03,0.03,0.00,0.05
7.451,0.01,0.04,0.00,0.04
7.461,-0.00,0.03,-0.00,0.03
7.471,0.02,0.01,0.01,0.02
7.481,0.02,0.01,0.01,0.03
7.491,0.01,0.02,-0.00,0.02
7.501,0.01,0.02,-0.02,0.03
7.511,0.01,0.02,-0.02,0.03
7.521,0.01,0.03,-0.01,0.04
7.531,0.01,0.02,-0.02,0.03
7.541,0.02,0.03,-0.01,0.04
7.552,0.02,0.04,-0.00,0.04
7.562,0.02,0.04,0.02,0.05
7.572,0.02,0.03,0.01,0.04
7.582,0.02,0.04,-0.02,0.05
7.592,0.02,0.03,-0.02,0.05
7.602,0.01,0.04,-0.02,0.05
7.612,0.02,0.05,-0.03,0.06
7.622,0.02,0.05,-0.04,0.07
7.632,0.03,0.05,-0.01,0.06
7.642,0.01,0.05,-0.02,0.05
7.652,0.01,0.03,-0.01,0.03
7.662,0.01,0.02,0.00,0.02
7.672,0.03,0.04,0.00,0.04
7.683,0.01,0.05,-0.02,0.06
7.693,0.03,0.04,-0.02,0.05
7.703,0.02,0.04,-0.01,0.05
7.713,0.02,0.04,0.01,0.05
7.723,0.04,0.04,0.01,0.06
7.733,0.02,0.03,0.00,0.04
7.743,0.03,0.02,0.01,0.04
7.753,0.02,0.02,-0.02,0.03
7.763,0.02,0.01,-0.03,0.04
7.773,0.01,0.02,-0.03,0.04
7.783,0.02,0.04,-0.03,0.05
7.793,0.01,0.05,-0.03,0.05
7.803,0.00,0.07,-0.01,0.07
7.813,0.02,0.07,-0.00,0.07
7.823,0.02,0.06,0.01,0.06
7.834,0.00,0.03,0.01,0.04
7.844,0.01,0.03,0.02,0.04
7.854,0.01,0.01,0.02,0.02
7.864,0.02,0.02,-0.02,0.04
7.874,0.02,0.04,-0.05,0.07
7.884,0.02,0.03,-0.05,0.06
7.894,-0.00,0.03,-0.05,0.06
7.904,-0.01,0.02,-0.03,0.04
7.914,0.01,0.03,-0.00,0.03
7.924,0.02,0.03,0.01,0.03
7.934,0.03,0.02,0.02,0.04
7.944,0.02,0.01,0.02,0.03
7.954,0.04,0.00,-0.00,0.04
7.964,0.06,-0.01,0.01,0.06
7.975,0.04,0.01,-0.01,0.04
7.985,0.04,0.05,-0.03,0.07
7.995,0.04,0.07,0.01,0.08
8.005,0.04,0.08,0.00,0.09
8.015,0.03,0.07,0.02,0.08
8.025,0.03,0.07,-0.00,0.08
8.035,0.02,0.06,-0.01,0.06
8.045,0.01,0.05,-0.00,0.05
8.055,0.01,0.05,-0.03,0.06
8.065,-0.00,0.03,-0.03,0.04
8.075,0.01,0.04,-0.03,0.05
8.085,0.02,0.04,-0.01,0.05
8.095,0.03,0.04,-0.00,0.05
8.105,0.03,0.03,-0.00,0.05
8.115,0.01,0.04,-0.01,0.04
8.125,0.01,0.05,-0.02,0.05
8.135,0.00,0.03,-0.02,0.03
8.146,0.01,0.02,0.01,0.02
8.156,-0.00,0.00,0.00,0.01
8.166,-0.01,-0.00,-0.00,0.01
8.176,0.01,-0.02,0.00,0.02
8.186,0.01,0.00,0.00,0.01
8.196,0.02,0.00,0.00,0.02
8.206,0.04,0.01,-0.00,0.04
8.216,0.04,0.04,-0.01,0.05
8.226,0.04,0.03,-0.02,0.05
8.236,0.03,0.04,-0.01,0.05
8.246,0.02,0.06,-0.03,0.07
8.256,-0.00,0.05,-0.02,0.05
8.266,0.00,0.04,-0.03,0.05
8.277,-0.01,0.03,-0.02,0.04
8.286,0.01,0.05,-0.02,0.05
8.297,0.00,0.05,-0.02,0.05
8.307,0.02,0.05,-0.00,0.05
8.317,0.04,0.05,-0.02,0.06
8.327,0.02,0.05,-0.01,0.05
8.337,0.03,0.04,-0.02,0.05
8.347,0.03,0.02,-0.01,0.04
8.357,0.03,0.02,0.01,0.04
8.367,0.03,0.01,-0.01,0.03
8.377,0.02,0.02,-0.02,0.03
8.387,0.04,0.01,0.01,0.04
8.397,0.05,0.02,0.03,0.06
8.407,0.02,0.02,0.01,0.03
8.417,0.02,0.03,0.00,0.04
8.428,0.02,0.05,-0.01,0.05
8.438,0.01,0.04,-0.04,0.06
8.448,0.02,0.04,-0.03,0.06
8.458,0.01,0.03,-0.03,0.04
8.468,-0.01,0.03,-0.01,0.03
8.478,-0.01,0.02,-0.02,0.03
8.488,-0.00,0.03,-0.01,0.03
8.498,0.00,0.03,-0.01,0.03
8.508,0.00,0.03,-0.02,0.04
8.518,0.02,0.03,-0.00,0.04
8.528,0.01,0.04,0.02,0.05
8.538,0.02,0.01,0.02,0.03
8.548,0.02,0.01,0.03,0.04
8.558,0.00,0.01,-0.02,0.02
8.568,-0.00,0.03,-0.06,0.06
8.579,0.00,0.04,-0.06,0.08
8.589,0.01,0.05,-0.05,0.07
8.599,0.03,0.05,-0.03,0.06
8.609,0.01,0.05,0.01,0.05
8.619,0.01,0.05,0.04,0.07
8.629,0.02,0.04,0.03,0.05
8.639,0.01,0.03,0.03,0.04
8.649,0.00,-0.01,0.02,0.02
8.659,0.01,-0.02,-0.00,0.02
8.669,0.01,0.00,-0.01,0.02
8.679,0.01,0.02,-0.04,0.04
8.689,0.02,0.04,-0.02,0.05
8.699,0.04,0.07,0.01,0.08
8.709,0.03,0.06,0.02,0.06
8.720,0.03,0.05,0.00,0.06
8.730,0.04,0.03,0.01,0.06
8.740,0.02,0.02,-0.02,0.04
8.750,0.01,0.03,-0.03,0.04
8.760,-0.00,0.01,-0.03,0.03
8.770,0.01,0.03,-0.02,0.04
8.780,0.03,0.04,0.00,0.06
8.790,0.02,0.02,0.01,0.03
8.800,0.02,0.04,-0.01,0.05
8.810,0.03,0.03,-0.01,0.04
8.820,0.03,0.03,-0.02,0.04
8.830,0.02,0.03,-0.01,0.03
8.840,-0.00,0.04,0.00,0.04
8.850,-0.02,0.02,0.02,0.03
8.861,-0.00,0.01,-0.00,0.01
8.871,0.00,0.02,-0.00,0.02
8.881,0.02,-0.00,-0.01,0.02
8.891,0.02,0.02,0.00,0.03
8.901,0.01,0.02,0.00,0.02
8.911,0.00,0.01,-0.00,0.01
8.921,0.03,0.03,-0.01,0.05
8.931,0.00,0.04,-0.00,0.04
8.941,0.00,0.02,0.01,0.02
8.951,-0.01,0.02,0.01,0.03
8.961,0.01,0.03,-0.00,0.03
8.971,0.00,0.03,-0.01,0.03
8.981,-0.00,0.03,-0.02,0.04
8.991,0.02,0.05,-0.03,0.06
9.001,0.01,0.02,-0.02,0.03
9.012,0.02,0.03,0.00,0.03
9.022,0.02,0.03,-0.01,0.04
9.032,0.00,-0.01,-0.01,0.01
9.042,0.02,0.01,-0.02,0.03
9.052,0.03,0.02,-0.01,0.04
9.062,0.03,0.01,-0.02,0.04
9.072,0.02,0.01,0.00,0.02
9.082,0.00,0.02,-0.01,0.02
9.092,0.01,0.02,-0.01,0.03
9.102,0.01,0.03,-0.00,0.04
9.112,0.03,0.03,0.01,0.05
9.122,-0.02,0.04,0.02,0.05
9.132,-0.00,0.03,0.02,0.03
9.142,0.01,0.02,0.01,0.02
9.153,0.00,0.03,-0.00,0.03
9.163,0.01,0.02,-0.00,0.02
9.173,0.01,0.03,-0.02,0.04
9.183,0.01,0.02,-0.02,0.03
9.193,0.01,0.02,-0.01,0.03
9.203,0.01,0.02,-0.01,0.03
9.213,0.03,0.03,0.01,0.04
9.223,0.03,0.03,0.01,0.05
9.233,0.02,0.01,0.01,0.03
9.243,-0.01,-0.00,0.00,0.01
9.253,0.01,0.02,-0.01,0.02
9.263,-0.00,0.01,-0.04,0.04
9.273,-0.02,0.03,-0.05,0.06
9.283,-0.01,0.03,-0.03,0.04
9.294,-0.01,0.03,-0.03,0.05
9.304,0.01,0.05,-0.01,0.05
9.314,0.02,0.04,0.02,0.05
9.324,0.02,0.03,0.03,0.05
9.334,0.01,-0.00,0.02,0.02
9.344,0.00,-0.03,0.02,0.03
9.354,0.00,-0.03,0.00,0.03
9.364,0.01,-0.02,-0.02,0.03
9.374,0.00,0.01,-0.02,0.02
9.384,0.03,0.02,-0.00,0.04
9.394,0.03,0.07,-0.01,0.08
9.404,0.03,0.06,0.00,0.07
9.414,0.03,0.07,0.00,0.08
9.424,0.02,0.07,0.00,0.07
9.434,0.00,0.05,-0.02,0.05
9.445,0.01,0.04,-0.02,0.04
9.455,-0.01,0.03,-0.03,0.04
9.465,0.00,0.02,-0.00,0.02
9.475,0.02,0.02,0.01,0.03
9.485,0.01,0.03,-0.00,0.03
9.495,0.02,0.04,-0.02,0.04
9.505,0.02,0.03,-0.01,0.04
9.515,0.01,0.02,-0.01,0.02
9.525,0.01,0.02,-0.03,0.04
9.535,0.02,-0.00,0.00,0.02
9.545,0.01,0.00,0.00,0.01
9.555,0.01,-0.00,0.01,0.01
9.565,0.00,-0.01,-0.01,0.01
9.575,0.01,-0.00,0.01,0.01
9.585,-0.00,0.01,0.02,0.02
9.596,0.01,0.01,0.00,0.01
9.606,0.01,0.01,-0.01,0.01
9.616,-0.00,0.00,-0.02,0.02
9.626,0.01,0.02,-0.02,0.03
9.636,0.02,0.02,-0.02,0.03
9.646,0.02,0.03,-0.01,0.04
9.656,0.02,0.02,-0.00,0.03
9.666,0.02,0.02,-0.00,0.02
9.676,0.02,0.04,-0.02,0.05
9.686,0.02,0.03,-0.01,0.03
9.696,0.00,0.03,-0.02,0.04
9.706,-0.01,0.02,-0.01,0.03
9.716,0.01,0.02,0.01,0.02
9.726,-0.00,0.01,-0.01,0.01
9.737,0.00,0.02,-0.00,0.02
9.747,0.02,0.03,0.00,0.03
9.757,0.01,0.01,-0.00,0.02
9.767,0.03,0.00,-0.01,0.03
9.777,0.04,0.02,-0.01,0.04
9.787,0.02,0.04,-0.00,0.05
9.797,0.02,0.03,-0.02,0.04
9.807,0.02,0.02,0.00,0.02
9.817,-0.02,0.03,-0.01,0.03
9.827,-0.02,0.00,-0.02,0.03
9.837,-0.02,-0.01,-0.02,0.03
9.847,-0.02,0.02,-0.02,0.03
9.857,0.01,0.01,-0.03,0.03
9.867,0.01,0.03,-0.01,0.03
9.877,-0.00,0.03,-0.03,0.04
9.888,-0.00,0.02,-0.02,0.03
9.898,0.01,0.04,-0.03,0.05
9.908,0.02,0.02,-0.03,0.04
9.918,0.03,0.01,-0.01,0.03
9.928,0.03,0.01,-0.01,0.04
9.938,0.05,0.02,0.00,0.05
9.948,0.03,0.01,0.02,0.04
9.958,0.01,-0.00,0.00,0.01
9.968,0.01,0.01,-0.01,0.02
9.978,-0.02,0.02,-0.03,0.04
9.988,-0.01,0.02,-0.07,0.07
9.998,-0.00,0.02,-0.04,0.04
10.008,-0.00,0.03,-0.02,0.03
10.018,0.02,0.03,0.01,0.04
10.028,0.02,0.01,0.01,0.03
10.039,0.00,0.02,0.02,0.02
10.049,-0.01,0.01,0.02,0.02
10.059,0.01,-0.01,0.01,0.02
10.069,0.00,-0.01,-0.02,0.02
10.079,0.02,0.01,-0.01,0.03
10.089,0.03,0.02,0.01,0.04
10.099,0.03,0.03,0.01,0.04
10.109,0.03,0.04,0.02,0.05
10.119,0.03,0.05,-0.01,0.06
10.129,0.02,0.05,0.01,0.06
10.139,0.03,0.04,-0.01,0.05
10.149,0.00,0.03,-0.04,0.05
10.159,0.01,0.03,-0.05,0.06
10.170,-0.02,0.03,-0.03,0.05
10.180,-0.02,-0.00,-0.01,0.02
10.190,0.00,0.01,0.01,0.01
10.200,0.01,0.01,0.00,0.01
10.210,0.02,0.02,-0.02,0.03
10.220,0.01,0.02,-0.02,0.03
10.230,-0.01,0.02,-0.01,0.02
10.240,-0.02,0.02,-0.00,0.02
10.250,0.01,0.02,-0.01,0.02
10.260,-0.00,-0.00,-0.01,0.01
10.270,-0.00,-0.00,-0.02,0.02
10.280,-0.01,0.00,-0.02,0.02
10.290,-0.00,0.01,-0.00,0.01
10.300,-0.01,0.01,-0.01,0.02
10.310,0.01,0.02,0.00,0.02
10.321,0.01,0.03,0.00,0.03
10.331,0.01,0.02,0.02,0.03
10.341,0.02,0.04,-0.01,0.05
10.351,0.00,0.04,-0.01,0.04
10.361,0.01,0.03,-0.02,0.03
10.371,0.02,0.01,-0.03,0.04
10.381,0.02,0.01,-0.02,0.03
10.391,0.02,0.01,-0.01,0.03
10.401,0.03,0.02,-0.01,0.03
10.411,0.02,0.02,-0.00,0.03
10.421,0.02,0.01,0.01,0.02
10.431,0.01,0.01,-0.01,0.02
10.441,0.02,0.03,-0.02,0.04
10.451,-0.00,0.03,-0.00,0.03
10.461,0.02,0.02,-0.01,0.03
10.472,0.03,0.01,-0.01,0.03
10.482,0.02,0.00,-0.02,0.03
10.492,0.01,0.02,0.00,0.03
10.502,0.02,0.01,0.00,0.02
10.512,0.01,0.02,0.01,0.02
10.522,0.01,0.00,-0.00,0.01
10.532,0.01,0.02,-0.01,0.02
10.542,0.00,0.02,0.01,0.02
10.552,-0.01,0.03,-0.03,0.04
10.562,0.00,0.02,-0.02,0.03
10.572,-0.00,0.03,-0.00,0.03
10.582,0.01,0.03,-0.02,0.03
10.592,-0.01,0.01,-0.02,0.03
10.602,0.00,0.03,-0.00,0.03
10.613,0.01,0.02,-0.01,0.03
10.623,0.02,0.03,-0.00,0.04
10.633,0.03,0.03,0.01,0.04
10.643,0.00,0.02,0.02,0.03
10.653,0.00,0.00,0.02,0.02
10.663,0.02,-0.01,-0.01,0.02
10.673,0.01,-0.01,-0.02,0.02
10.683,0.01,0.00,-0.05,0.05
10.693,0.02,0.01,-0.04,0.05
10.703,0.01,0.00,-0.03,0.03
10.713,0.00,0.02,-0.01,0.02
10.723,0.01,0.03,0.01,0.03
10.733,-0.00,0.03,0.03,0.05
10.743,0.00,0.02,0.00,0.02
10.754,0.01,-0.02,-0.01,0.03
10.764,0.01,-0.01,0.00,0.02
10.774,-0.01,0.01,-0.00,0.01
10.784,0.01,0.01,0.01,0.02
10.794,0.02,0.03,0.03,0.05
10.804,0.03,0.04,0.01,0.05
10.814,0.03,0.05,0.02,0.06
10.824,0.03,0.04,0.00,0.06
10.834,0.01,0.04,-0.03,0.05
10.844,0.01,0.03,-0.05,0.06
10.854,0.01,0.03,-0.01,0.03
10.864,0.01,0.02,-0.02,0.03
10.874,0.01,0.02,-0.00,0.02
10.884,-0.01,0.02,0.00,0.02
10.894,-0.01,0.02,0.00,0.02
10.904,-0.01,-0.00,0.02,0.03
10.914,-0.01,0.02,0.01,0.03
10.925,-0.01,0.03,-0.03,0.04
10.935,-0.01,0.02,-0.03,0.04
10.945,-0.01,-0.00,-0.01,0.01
10.955,-0.00,-0.01,-0.01,0.01
10.965,0.01,0.01,0.01,0.01
10.975,-0.01,-0.00,0.01,0.01
10.985,-0.01,-0.01,-0.00,0.01
10.995,-0.00,-0.00,-0.02,0.02
11.005,-0.00,-0.00,-0.01,0.02
11.015,0.03,0.01,-0.01,0.03
11.025,0.02,0.01,-0.00,0.02
11.035,0.03,0.04,0.00,0.05
11.045,0.02,0.03,0.01,0.04
11.056,0.02,0.03,0.01,0.04
11.066,-0.00,0.03,-0.01,0.04
11.076,-0.01,0.03,-0.02,0.04
11.086,-0.01,0.02,-0.03,0.04
11.096,-0.00,-0.00,-0.02,0.02
11.106,-0.00,0.02,-0.01,0.02
11.116,0.00,0.02,0.01,0.02
11.126,0.02,0.03,0.01,0.04
11.136,0.03,0.03,-0.00,0.04
11.146,0.02,0.01,0.01,0.03
11.156,0.02,0.02,0.02,0.03
11.166,0.02,0.00,0.02,0.03
11.176,0.02,0.00,0.02,0.03
11.186,0.00,-0.02,0.01,0.02
11.197,0.02,-0.02,-0.00,0.03
11.207,0.00,-0.00,-0.00,0.00
11.217,-0.02,-0.00,0.01,0.02
11.227,0.00,0.01,-0.01,0.01
11.237,-0.01,0.02,-0.01,0.03
11.247,-0.02,0.01,-0.02,0.03
11.257,-0.04,0.03,-0.01,0.05
11.267,-0.02,0.04,-0.00,0.04
11.277,-0.01,0.02,-0.01,0.02
11.287,-0.02,0.03,0.00,0.04
11.297,-0.01,0.02,-0.01,0.03
11.307,0.01,0.01,-0.02,0.02
11.317,-0.00,0.01,-0.01,0.02
11.327,0.01,0.00,-0.00,0.01
11.337,0.02,-0.00,-0.00,0.02
11.348,0.02,0.02,-0.00,0.03
11.358,0.02,0.01,0.01,0.03
11.368,0.03,-0.00,-0.00,0.03
11.378,0.02,0.02,-0.01,0.03
11.388,0.00,0.00,-0.02,0.02
11.398,-0.02,0.01,-0.04,0.04
11.408,-0.00,0.03,-0.04,0.05
11.418,-0.02,0.02,-0.03,0.05
11.428,-0.02,0.02,-0.01,0.03
11.438,0.01,0.03,0.02,0.04
11.448,0.00,0.03,0.02,0.04
11.458,-0.00,0.00,0.02,0.02
11.468,0.01,-0.01,0.01,0.02
11.478,-0.01,-0.02,0.01,0.02
11.489,0.01,-0.02,-0.01,0.02
11.499,0.01,0.01,-0.00,0.02
11.509,0.02,0.03,0.00,0.03
11.519,0.03,0.02,0.02,0.04
11.529,0.01,0.05,0.02,0.05
11.539,0.01,0.05,-0.01,0.05
11.549,0.01,0.04,-0.01,0.05
11.559,0.02,0.03,-0.02,0.04
11.569,0.01,0.01,-0.03,0.03
11.579,-0.00,0.01,-0.03,0.03
11.589,0.01,0.01,-0.02,0.03
11.599,0.01,0.02,-0.00,0.02
11.609,-0.00,0.02,0.03,0.04
11.619,-0.00,0.01,0.04,0.04
11.629,0.00,0.01,-0.01,0.02
11.640,-0.01,0.03,-0.01,0.03
11.650,0.00,0.02,-0.02,0.02
11.660,-0.01,-0.01,-0.01,0.01
11.670,-0.00,-0.00,-0.01,0.01
11.680,0.02,-0.01,-0.00,0.02
11.690,0.01,-0.00,-0.00,0.01
11.700,0.01,-0.00,0.01,0.02
11.710,0.01,-0.01,0.02,0.02
11.720,-0.01,-0.00,-0.01,0.02
11.730,0.01,0.01,-0.02,0.02
11.740,-0.00,0.00,-0.01,0.02
11.750,0.00,0.01,-0.02,0.02
11.760,0.01,0.02,-0.01,0.02
11.771,0.01,0.02,-0.01,0.02
11.781,0.01,0.04,-0.02,0.04
11.791,0.01,0.03,-0.01,0.03
11.801,0.02,0.03,-0.00,0.03
11.811,0.00,0.02,0.00,0.02
11.821,0.02,0.01,0.01,0.03
11.831,0.02,0.01,-0.01,0.02
11.841,0.02,0.00,-0.03,0.04
11.851,0.01,0.02,-0.01,0.03
11.861,0.01,0.03,-0.00,0.03
11.871,0.02,0.02,0.02,0.03
11.881,0.01,0.02,0.02,0.03
11.891,0.01,0.01,0.01,0.02
11.901,0.02,0.00,0.01,0.03
11.911,0.01,0.02,0.01,0.02
11.921,0.01,-0.00,-0.01,0.01
11.932,-0.01,-0.00,-0.01,0.02
11.942,-0.00,0.01,-0.02,0.02
11.952,-0.01,0.02,-0.01,0.02
11.962,-0.01,0.03,-0.01,0.03
11.972,-0.01,0.03,-0.02,0.04
11.982,0.01,0.03,-0.03,0.04
11.992,0.01,0.03,-0.04,0.05
12.002,0.00,0.03,-0.01,0.03
12.012,-0.00,0.02,0.01,0.02
12.022,0.00,0.01,-0.00,0.01
12.032,0.01,0.01,-0.00,0.02
12.042,-0.00,0.01,-0.00,0.01
12.052,-0.00,0.01,-0.00,0.01
12.062,0.01,0.03,0.00,0.03
12.073,0.03,0.02,0.01,0.04
12.083,0.02,0.01,-0.00,0.02
12.093,0.03,0.02,-0.00,0.04
12.103,0.03,-0.00,0.02,0.03
12.113,0.00,-0.01,0.01,0.01
12.123,-0.01,0.00,-0.02,0.03
12.133,-0.01,0.00,-0.05,0.06
12.143,-0.00,0.02,-0.05,0.06
12.153,-0.01,0.03,-0.04,0.05
12.163,-0.01,0.02,-0.01,0.03
12.173,0.01,0.03,0.01,0.03
12.183,-0.01,0.01,0.01,0.02
12.193,-0.02,-0.01,-0.00,0.02
12.203,-0.01,-0.03,-0.00,0.03
12.213,-0.01,-0.03,0.01,0.03
12.224,-0.00,-0.02,-0.01,0.02
12.234,0.01,0.00,-0.00,0.01
12.244,0.03,0.02,-0.00,0.04
12.254,0.04,0.03,0.01,0.05
12.264,0.03,0.04,0.00,0.05
12.274,0.02,0.04,0.01,0.05
12.284,0.01,0.03,0.01,0.03
12.294,-0.01,0.02,0.01,0.02
12.304,0.00,-0.00,-0.02,0.02
12.314,0.01,0.01,-0.03,0.04
12.324,0.00,0.02,-0.04,0.04
12.334,0.01,0.02,-0.02,0.03
12.344,0.01,0.04,-0.01,0.04
12.354,-0.01,0.01,-0.02,0.02
12.365,-0.00,0.01,-0.02,0.03
12.375,0.00,0.03,-0.02,0.03
12.385,-0.03,0.00,-0.00,0.03
12.395,-0.01,0.01,-0.01,0.02
12.405,0.02,0.00,-0.01,0.02
12.415,0.02,0.01,0.02,0.03
12.425,0.01,-0.01,0.03,0.03
12.435,0.01,-0.03,-0.00,0.03
12.445,-0.02,-0.01,-0.00,0.03
12.455,-0.02,0.00,-0.01,0.02
12.465,0.00,-0.00,-0.01,0.01
12.475,0.01,0.01,-0.01,0.02
12.485,-0.00,0.02,-0.01,0.02
12.495,-0.01,0.02,-0.01,0.02
12.506,0.01,0.02,-0.02,0.03
12.516,0.02,0.02,-0.02,0.04
12.525,0.02,0.03,-0.03,0.04
12.536,0.01,0.02,-0.01,0.03
12.546,0.01,0.01,0.00,0.01
12.556,-0.00,0.01,0.01,0.02
12.566,-0.00,0.00,-0.00,0.00
12.576,-0.00,0.01,-0.00,0.01
12.586,0.00,0.00,-0.01,0.01
12.596,-0.01,0.00,-0.01,0.01
12.606,0.01,0.01,-0.00,0.01
12.616,0.02,0.00,-0.00,0.02
12.626,0.02,0.01,0.01,0.02
12.636,0.02,0.01,0.00,0.03
12.646,0.01,0.01,0.00,0.01
12.657,0.01,-0.01,-0.00,0.01
12.667,0.01,-0.01,-0.01,0.02
12.677,0.02,0.00,-0.02,0.03
12.687,-0.01,0.00,-0.03,0.03
12.697,0.00,0.00,-0.01,0.01
12.707,0.00,0.00,-0.02,0.02
12.717,-0.01,0.03,-0.02,0.04
12.727,0.00,0.03,-0.01,0.03
12.737,0.00,0.03,-0.01,0.03
12.747,-0.02,0.02,-0.01,0.03
12.757,-0.01,0.03,-0.01,0.03
12.767,0.00,0.02,-0.00,0.02
12.777,0.01,0.01,0.01,0.02
12.787,0.01,0.00,0.00,0.01
12.797,0.01,-0.01,-0.01,0.02
12.808,0.02,-0.00,-0.03,0.04
12.818,0.02,0.01,-0.01,0.02
12.828,0.01,0.02,0.02,0.03
12.838,0.02,-0.01,0.03,0.04
12.848,-0.00,-0.02,0.02,0.03
12.858,0.01,0.00,0.01,0.01
12.868,0.01,-0.01,-0.01,0.02
12.878,0.02,0.02,-0.02,0.03
12.888,0.02,0.03,-0.05,0.06
12.898,0.00,0.03,-0.03,0.04
12.908,-0.01,0.02,-0.03,0.04
12.918,-0.01,0.02,-0.01,0.02
12.928,-0.01,0.01,0.02,0.02
12.938,-0.01,-0.01,0.01,0.02
12.948,-0.01,-0.03,0.02,0.04
12.959,0.00,-0.04,0.01,0.05
12.969,0.00,-0.02,-0.01,0.02
12.979,0.01,-0.01,-0.02,0.02
12.989,0.02,0.02,-0.00,0.03
12.999,0.05,0.04,0.00,0.06
13.009,0.04,0.05,0.01,0.07
13.019,0.02,0.05,0.02,0.06
13.029,0.01,0.03,0.01,0.03
13.039,-0.00,0.02,-0.02,0.03
13.049,-0.01,0.02,-0.04,0.04
13.059,-0.00,0.01,-0.02,0.02
13.069,0.03,0.01,-0.01,0.03
13.079,-0.00,0.01,-0.00,0.01
13.089,0.00,0.02,-0.00,0.02
13.100,-0.01,0.04,-0.01,0.04
13.110,0.00,0.02,-0.01,0.02
13.120,-0.02,0.02,-0.01,0.03
13.130,-0.01,-0.00,0.01,0.01
13.140,-0.01,-0.01,0.00,0.01
13.150,-0.00,-0.01,-0.01,0.01
13.160,0.00,-0.02,-0.01,0.02
13.170,0.01,-0.02,-0.01,0.02
13.180,0.02,-0.02,-0.01,0.03
13.190,0.02,-0.01,0.02,0.03
13.200,0.01,0.01,0.00,0.02
13.210,0.00,0.00,-0.00,0.00
13.220,0.00,0.02,-0.02,0.03
13.230,-0.01,0.01,-0.00,0.02
13.240,0.01,0.02,-0.00,0.02
13.251,0.00,0.00,0.00,0.01
13.261,0.00,0.02,0.02,0.03
13.271,0.01,0.02,-0.00,0.03
13.281,-0.01,0.02,-0.02,0.03
13.291,0.01,0.01,-0.03,0.04
13.301,0.01,0.01,-0.02,0.03
13.311,0.02,0.02,-0.02,0.04
13.321,0.01,0.01,-0.01,0.01
13.331,0.02,-0.00,0.00,0.02
13.341,0.04,-0.00,-0.00,0.04
13.351,0.02,-0.00,-0.00,0.02
13.361,0.03,0.02,-0.00,0.03
13.371,0.01,0.01,0.02,0.02
13.381,-0.00,-0.00,0.01,0.01
13.392,-0.00,-0.00,-0.01,0.01
13.402,0.00,0.02,-0.02,0.03
13.412,0.02,0.02,-0.02,0.03
13.422,0.01,0.00,0.00,0.01
13.432,0.01,-0.00,-0.01,0.01
13.442,-0.00,0.01,-0.02,0.02
13.452,-0.00,0.01,-0.00,0.01
13.462,0.00,0.02,-0.01,0.02
13.472,-0.01,0.01,0.01,0.02
13.482,0.00,0.01,-0.01,0.01
13.492,-0.02,0.03,-0.02,0.04
13.502,-0.01,0.03,-0.02,0.04
13.512,-0.01,0.01,-0.01,0.02
13.522,-0.00,0.03,-0.01,0.03
13.532,0.01,0.01,0.00,0.01
13.543,0.02,0.02,0.01,0.03
13.553,0.01,0.01,0.01,0.02
13.563,0.02,0.01,0.01,0.02
13.573,0.03,0.01,0.01,0.03
13.583,0.02,-0.00,0.02,0.03
13.593,0.02,-0.01,0.02,0.03
13.603,0.02,-0.01,-0.00,0.02
13.613,-0.01,0.00,-0.02,0.02
13.623,-0.01,0.03,-0.03,0.04
13.633,-0.02,0.03,-0.05,0.06
13.643,-0.04,0.03,-0.02,0.05
13.653,-0.02,0.00,-0.01,0.02
13.663,-0.01,0.01,0.00,0.02
13.674,-0.02,0.01,0.02,0.03
13.684,-0.00,0.00,0.01,0.01
13.694,-0.00,-0.01,0.01,0.01
13.704,0.02,-0.02,0.02,0.03
13.714,0.02,-0.02,0.01,0.03
13.724,0.00,-0.01,-0.01,0.02
13.734,0.01,0.01,-0.02,0.02
13.744,0.04,0.04,0.02,0.05
13.754,0.03,0.03,0.03,0.05
13.764,0.03,0.03,0.00,0.04
13.774,-0.01,0.01,-0.01,0.02
13.784,-0.03,0.02,-0.01,0.04
13.794,-0.01,0.02,-0.04,0.04
13.804,0.01,0.03,-0.04,0.04
13.814,0.00,0.04,-0.03,0.05
13.825,0.00,0.03,-0.01,0.03
13.835,-0.01,0.02,-0.00,0.03
13.845,-0.01,0.01,0.00,0.02
13.855,0.00,-0.00,-0.01,0.01
13.865,-0.00,-0.01,-0.01,0.01
13.875,-0.01,0.01,0.01,0.01
13.885,0.01,-0.01,0.02,0.02
13.895,0.02,0.00,0.01,0.02
13.905,0.03,-0.00,0.01,0.03
13.915,0.02,-0.01,0.01,0.02
13.925,-0.00,-0.01,0.01,0.02
13.935,-0.00,-0.02,0.01,0.02
13.945,-0.00,-0.02,-0.01,0.02
13.955,0.01,-0.01,-0.03,0.03
13.966,0.01,-0.01,-0.02,0.02
13.976,0.00,0.00,-0.00,0.01
13.986,0.02,0.01,0.02,0.03
13.996,0.02,0.02,0.01,0.03
14.006,0.00,0.03,0.02,0.03
14.016,-0.01,0.03,-0.00,0.04
14.026,-0.00,0.03,-0.01,0.03
14.036,-0.02,0.03,-0.03,0.05
14.046,-0.00,0.03,-0.02,0.04
14.056,-0.00,0.02,-0.02,0.03
14.066,0.01,0.01,-0.01,0.02
14.076,0.01,0.01,0.01,0.02
14.086,0.02,-0.01,-0.00,0.02
14.096,0.01,0.01,-0.00,0.02
14.106,0.02,0.01,0.02,0.03
14.116,0.02,0.01,0.01,0.02
14.127,0.02,-0.00,0.01,0.02
14.137,0.00,0.01,0.01,0.01
14.147,-0.00,0.01,-0.00,0.01
14.157,0.00,0.01,-0.01,0.01
14.167,-0.00,0.01,-0.02,0.02
14.177,-0.00,0.00,-0.01,0.01
14.187,-0.00,0.01,-0.01,0.01
14.197,0.00,-0.00,-0.01,0.01
14.207,-0.03,0.01,-0.02,0.04
14.217,-0.01,0.01,-0.02,0.02
14.227,0.01,-0.00,-0.01,0.01
14.237,0.01,0.00,-0.01,0.01
14.247,0.01,0.02,0.00,0.02
14.258,0.03,0.01,0.00,0.03
14.268,0.01,-0.01,-0.00,0.01
14.278,0.00,0.01,-0.01,0.02
14.288,-0.00,0.01,-0.00,0.01
14.298,0.01,0.02,-0.02,0.03
14.308,0.02,0.02,-0.00,0.03
14.318,0.03,0.03,-0.00,0.04
14.328,0.03,0.02,0.01,0.04
14.338,0.03,0.01,0.02,0.04
14.348,-0.01,0.01,0.02,0.02
14.358,0.01,-0.01,0.01,0.02
14.368,-0.00,-0.01,-0.02,0.02
14.378,-0.03,0.03,-0.04,0.06
14.388,-0.01,0.03,-0.06,0.07
14.398,-0.01,0.03,-0.04,0.05
14.408,-0.02,0.02,-0.03,0.04
14.419,-0.01,0.02,-0.01,0.02
14.429,-0.01,0.01,-0.01,0.02
14.439,-0.00,-0.02,-0.00,0.02
14.449,-0.01,-0.03,0.02,0.04
14.459,-0.02,-0.05,0.03,0.06
14.469,-0.02,-0.04,-0.01,0.05
14.479,0.01,-0.01,-0.00,0.01
14.489,0.03,0.02,0.02,0.04
14.499,0.02,0.02,0.01,0.03
14.509,0.02,0.03,0.01,0.04
14.519,0.02,0.01,-0.00,0.03
14.529,0.02,0.02,-0.03,0.04
14.539,0.01,0.01,-0.02,0.03
14.549,0.00,0.01,-0.04,0.04
14.560,0.00,-0.00,-0.03,0.03
14.570,0.02,0.01,0.00,0.02
14.580,-0.01,0.01,0.01,0.02
14.590,0.01,0.02,0.01,0.03
14.600,-0.01,0.04,0.01,0.04
14.610,-0.00,0.01,-0.02,0.02
14.620,0.01,0.03,-0.01,0.03
14.630,-0.00,0.03,-0.01,0.03
14.640,-0.01,0.01,-0.01,0.02
14.650,-0.01,-0.01,-0.01,0.02
14.660,0.02,-0.02,-0.01,0.03
14.670,0.03,-0.01,0.00,0.03
14.680,0.01,-0.01,0.02,0.03
14.690,-0.00,-0.01,0.00,0.01
14.700,-0.01,-0.01,-0.00,0.01
14.710,0.00,-0.01,-0.01,0.02
14.721,-0.01,0.01,-0.03,0.03
14.731,-0.02,0.00,-0.01,0.02
14.741,-0.01,-0.00,-0.01,0.02
14.751,-0.00,0.01,-0.00,0.01
14.761,0.01,0.03,-0.02,0.04
14.771,0.01,0.02,-0.02,0.03
14.781,0.01,0.03,-0.02,0.04
14.792,-0.00,0.00,-0.00,0.00
14.801,0.02,0.01,0.01,0.02
14.811,-0.00,0.01,0.00,0.01
14.821,-0.00,-0.01,-0.01,0.01
14.831,0.00,-0.00,-0.01,0.01
14.842,-0.01,-0.00,-0.01,0.01
14.852,0.02,0.00,-0.02,0.03
14.862,0.00,0.01,-0.00,0.01
14.872,0.01,0.01,0.00,0.02
14.882,0.01,0.00,0.00,0.01
14.892,0.01,0.01,-0.01,0.02
14.902,0.01,0.01,-0.01,0.02
14.912,0.01,0.02,-0.02,0.03
14.922,0.01,0.02,-0.00,0.03
14.932,0.01,0.01,-0.00,0.02
14.942,-0.01,0.01,-0.00,0.02
14.952,-0.00,0.01,-0.00,0.01
14.963,0.01,0.01,-0.01,0.02
14.973,-0.00,0.02,-0.01,0.02
14.983,-0.00,0.02,-0.01,0.03
14.993,-0.00,0.01,-0.01,0.02
15.003,0.00,0.03,-0.01,0.03
15.013,-0.01,0.01,-0.01,0.02
15.023,0.00,0.01,-0.02,0.02
15.033,0.00,0.00,-0.01,0.01
15.043,-0.01,-0.01,-0.01,0.02
15.053,-0.00,0.02,-0.00,0.02
15.063,0.03,0.00,-0.00,0.03
15.073,0.01,0.00,0.00,0.01
15.083,0.03,0.02,0.00,0.03
15.093,0.02,0.00,0.01,0.02
15.103,0.01,0.00,0.02,0.02
15.113,0.00,0.00,0.02,0.02
15.123,-0.00,-0.01,0.00,0.01
15.134,0.01,-0.01,-0.01,0.02
15.144,0.00,-0.00,-0.03,0.03
15.156,-0.00,0.01,-0.05,0.05
15.166,-0.01,0.02,-0.04,0.04
15.176,0.00,0.03,-0.03,0.04
15.186,0.01,0.02,-0.01,0.03
15.196,0.01,0.02,0.01,0.03
15.206,0.01,0.00,0.02,0.03
15.217,0.01,-0.04,0.02,0.05
15.227,-0.02,-0.05,0.03,0.06
15.237,-0.01,-0.03,0.01,0.03
15.247,-0.01,-0.02,-0.01,0.02
15.257,0.01,0.01,0.00,0.01
15.267,0.04,0.03,0.00,0.05
15.277,0.04,0.03,0.01,0.05
15.287,0.04,0.05,0.02,0.07
15.297,0.03,0.04,0.00,0.05
15.307,0.02,0.02,-0.00,0.02
15.317,-0.00,0.01,-0.03,0.03
15.327,-0.00,-0.00,-0.03,0.03
15.337,-0.02,-0.00,-0.02,0.03
15.347,0.01,0.01,-0.00,0.01
15.358,-0.01,0.01,0.01,0.02
15.368,-0.01,0.01,0.01,0.02
15.378,-0.01,0.02,-0.00,0.02
15.388,-0.00,0.02,-0.03,0.03
15.398,-0.01,0.01,-0.01,0.02
15.408,-0.01,0.01,-0.03,0.03
15.418,0.00,0.00,-0.00,0.00
15.428,0.00,-0.01,0.01,0.01
15.438,-0.00,-0.01,0.00,0.01
15.448,-0.01,-0.00,-0.00,0.01
15.458,0.00,-0.03,-0.03,0.04
15.468,0.01,-0.01,-0.03,0.03
15.478,0.01,-0.01,0.01,0.02
15.488,0.00,-0.01,0.03,0.03
15.499,0.00,-0.01,0.03,0.03
15.509,0.01,0.01,0.00,0.01
15.519,0.01,0.01,0.00,0.01
15.529,-0.01,0.04,-0.00,0.04
15.539,-0.01,0.04,-0.02,0.04
15.549,-0.01,0.03,-0.04,0.05
15.559,0.00,0.02,-0.03,0.03
15.569,0.01,0.01,-0.01,0.02
15.579,-0.00,0.01,0.00,0.01
15.589,0.03,-0.01,0.01,0.03
15.599,0.04,-0.01,-0.01,0.04
15.609,0.02,-0.02,-0.01,0.03
15.619,0.03,-0.00,0.01,0.03
15.629,0.03,0.01,0.01,0.03
15.640,0.00,0.00,0.00,0.00
15.649,-0.00,0.01,-0.00,0.01
15.660,0.00,0.01,-0.01,0.01
15.670,0.00,0.01,-0.00,0.01
15.680,-0.01,0.01,-0.00,0.02
15.690,0.00,0.01,-0.02,0.02
15.700,-0.01,-0.01,-0.02,0.02
15.710,-0.01,-0.01,-0.01,0.02
15.720,0.02,-0.02,-0.02,0.04
15.730,0.00,-0.01,-0.02,0.02
15.740,0.01,-0.01,-0.01,0.02
15.750,0.01,-0.00,-0.02,0.02
15.760,0.02,0.00,-0.01,0.02
15.770,0.02,0.01,-0.01,0.02
15.780,0.02,0.01,0.00,0.03
15.790,0.00,0.00,-0.01,0.01
15.801,-0.00,0.02,-0.04,0.04
15.811,-0.01,0.04,-0.01,0.04
15.821,-0.00,0.02,-0.02,0.03
15.831,0.00,0.03,-0.00,0.03
15.841,0.00,0.02,0.01,0.02
15.851,0.00,0.03,0.01,0.03
15.861,-0.00,0.03,0.02,0.04
15.871,0.03,0.03,0.04,0.05
15.881,0.05,-0.00,0.01,0.05
15.891,0.04,-0.02,-0.01,0.04
15.901,0.04,-0.04,-0.01,0.05
15.911,0.01,-0.04,-0.02,0.04
15.921,-0.05,-0.02,-0.03,0.06
15.932,-0.08,-0.02,-0.06,0.10
15.942,-0.07,-0.01,-0.07,0.10
15.952,-0.05,0.00,-0.04,0.07
15.962,-0.04,0.01,-0.01,0.04
15.972,-0.04,0.01,0.01,0.04
15.982,-0.02,0.00,0.01,0.03
15.992,-0.03,-0.02,0.04,0.06
16.002,-0.03,-0.03,0.01,0.04
16.012,-0.03,-0.02,-0.01,0.04
16.022,-0.02,0.01,-0.03,0.04
16.032,-0.01,0.01,-0.03,0.04
16.042,-0.00,0.03,-0.02,0.03
16.052,-0.00,0.06,-0.00,0.06
16.062,0.02,0.05,0.02,0.05
16.072,0.02,0.04,0.02,0.05
16.083,0.03,0.03,0.00,0.04
16.093,0.05,0.00,-0.04,0.06
16.103,0.03,-0.02,-0.07,0.08
16.113,0.03,-0.02,-0.05,0.06
16.123,0.03,-0.02,-0.01,0.03
16.133,0.03,-0.01,0.04,0.05
16.143,0.05,-0.01,0.03,0.06
16.153,0.06,-0.00,0.02,0.06
16.163,0.07,0.02,-0.01,0.08
16.173,0.02,0.01,-0.02,0.03
16.183,-0.03,-0.02,-0.01,0.04
16.193,-0.08,-0.02,0.00,0.08
16.204,-0.12,-0.01,-0.05,0.13
16.213,-0.13,-0.00,-0.08,0.15
16.223,-0.12,0.01,-0.07,0.14
16.234,-0.13,0.03,0.01,0.14
16.244,-0.13,0.02,0.10,0.17
16.254,-0.17,-0.09,0.16,0.25
16.264,-0.23,-0.20,0.10,0.32
16.274,-0.25,-0.10,-0.09,0.28
16.284,-0.19,0.20,-0.21,0.34
16.294,-0.09,0.30,-0.11,0.33
16.304,0.02,0.18,0.04,0.18
16.314,0.14,0.06,0.08,0.18
16.324,0.21,0.03,0.03,0.22
16.334,0.28,0.02,-0.02,0.28
16.344,0.33,-0.01,-0.05,0.33
16.354,0.32,-0.02,-0.05,0.33
16.364,0.29,0.00,-0.02,0.29
16.375,0.22,-0.01,0.07,0.23
16.385,0.17,0.04,0.14,0.22
16.395,0.15,0.06,0.19,0.25
16.405,0.15,0.09,0.18,0.25
16.415,0.14,0.11,0.13,0.22
16.425,0.13,0.08,0.08,0.17
16.435,0.08,0.03,0.03,0.09
16.445,0.03,-0.01,0.05,0.06
16.455,0.01,-0.05,0.09,0.10
16.465,0.01,-0.08,0.07,0.11
16.475,-0.03,-0.09,0.05,0.11
16.485,-0.06,-0.11,-0.03,0.12
16.495,-0.06,-0.10,-0.14,0.18
16.505,-0.04,-0.09,-0.23,0.25
16.515,-0.06,-0.08,-0.26,0.28
16.526,-0.08,-0.06,-0.18,0.21
16.536,-0.10,-0.04,-0.06,0.12
16.546,-0.12,0.02,0.04,0.12
16.556,-0.14,0.04,0.07,0.16
16.566,-0.16,0.06,0.06,0.18
16.576,-0.16,0.06,-0.01,0.17
16.586,-0.17,0.08,-0.06,0.20
16.596,-0.15,0.06,-0.10,0.19
16.606,-0.11,0.07,-0.08,0.15
16.616,-0.05,0.07,-0.07,0.11
16.626,0.02,0.06,-0.04,0.07
16.636,0.07,0.05,-0.01,0.08
16.646,0.10,0.03,0.01,0.11
16.656,0.11,0.03,0.03,0.12
16.667,0.08,0.03,0.06,0.10
16.677,0.09,0.02,0.05,0.11
16.687,0.10,0.01,0.00,0.10
16.697,0.13,-0.01,0.01,0.13
16.707,0.13,-0.02,0.02,0.14
16.717,0.14,-0.00,-0.00,0.14
16.727,0.10,-0.01,-0.00,0.10
16.737,0.07,-0.02,0.01,0.07
16.747,0.03,-0.04,0.01,0.05
16.757,0.00,-0.03,-0.01,0.03
16.767,-0.01,-0.00,0.02,0.02
16.777,0.02,0.00,0.04,0.04
16.787,0.00,0.03,0.03,0.04
16.797,0.00,0.05,-0.01,0.05
16.807,0.01,0.06,-0.07,0.09
16.818,0.00,0.05,-0.09,0.10
16.828,0.03,0.02,-0.11,0.12
16.838,-0.03,0.08,-0.13,0.16
16.848,-0.16,0.16,-0.10,0.25
16.858,-0.17,0.16,-0.00,0.23
16.868,-0.07,0.10,0.06,0.13
16.878,0.02,0.15,0.14,0.21
16.888,-0.24,0.26,0.04,0.36
16.898,-0.41,0.12,-0.09,0.44
16.908,-0.17,-0.04,0.07,0.19
16.918,-0.05,-0.11,0.13,0.17
16.928,0.05,-0.30,0.12,0.33
16.938,0.22,-0.40,-0.00,0.46
16.948,0.09,-0.36,-0.22,0.43
16.959,0.03,-0.33,-0.17,0.37
16.969,0.02,-0.21,-0.05,0.22
16.979,-0.01,-0.05,0.01,0.05
16.989,-0.02,0.08,0.06,0.10
16.999,-0.03,0.15,0.06,0.16
17.009,-0.05,0.16,0.06,0.18
17.019,-0.07,0.12,0.05,0.15
17.029,-0.12,0.05,-0.00,0.13
17.039,-0.16,-0.03,-0.05,0.17
17.049,-0.13,-0.06,-0.07,0.16
17.059,-0.04,-0.05,-0.06,0.08
17.069,0.02,-0.03,-0.01,0.04
17.079,0.07,0.01,0.02,0.07
17.089,0.14,0.02,0.04,0.15
17.099,0.15,0.03,0.01,0.16
17.110,0.14,0.06,-0.03,0.15
17.120,0.13,0.07,-0.03,0.15
17.130,0.15,0.07,0.01,0.17
17.140,0.17,0.02,0.03,0.17
17.150,0.13,-0.01,0.01,0.13
17.160,0.04,-0.01,0.03,0.05
17.170,-0.01,-0.01,0.04,0.04
17.180,-0.06,0.02,0.00,0.06
17.190,-0.07,0.01,-0.01,0.08
17.200,-0.06,0.01,-0.02,0.07
17.210,-0.04,0.02,-0.02,0.05
17.220,-0.04,-0.01,-0.01,0.04
17.230,-0.02,-0.00,0.02,0.02
17.240,-0.02,-0.03,0.02,0.04
17.250,-0.02,-0.05,-0.00,0.06
17.261,-0.03,-0.06,-0.01,0.06
17.271,-0.03,-0.05,-0.04,0.07
17.281,-0.01,-0.02,-0.04,0.04
17.291,-0.01,-0.01,-0.03,0.03
17.301,0.02,0.02,-0.03,0.04
17.311,0.02,0.04,-0.02,0.05
17.321,0.05,0.05,-0.01,0.07
17.331,0.02,0.04,0.01,0.05
17.341,0.01,0.01,0.01,0.02
17.351,-0.03,0.02,0.00,0.04
17.361,-0.07,0.02,0.00,0.07
17.371,-0.04,0.03,-0.03,0.06
17.381,-0.03,0.02,-0.02,0.04
17.391,-0.01,-0.01,0.01,0.01
17.402,0.01,-0.02,0.03,0.04
17.412,0.02,-0.05,-0.00,0.05
17.422,0.00,-0.02,-0.04,0.04
17.432,-0.00,0.02,-0.06,0.06
17.442,-0.00,0.02,-0.05,0.05
17.452,-0.00,-0.01,-0.04,0.04
17.462,0.01,-0.04,-0.02,0.05
17.472,0.05,-0.04,0.04,0.08
17.482,0.02,0.00,0.04,0.05
17.492,0.04,0.02,-0.00,0.04
17.502,0.06,0.01,-0.01,0.06
17.512,-0.00,0.01,-0.01,0.01
17.522,-0.03,0.03,-0.01,0.04
17.532,0.02,0.02,-0.01,0.03
17.543,0.06,-0.02,0.00,0.06
17.552,0.04,-0.01,-0.00,0.04
17.563,0.03,-0.01,0.01,0.04
17.573,0.07,0.00,0.04,0.08
17.583,0.06,0.02,0.04,0.08
17.593,0.06,0.03,0.01,0.07
17.603,0.07,0.01,-0.04,0.08
17.613,0.07,-0.02,-0.06,0.09
17.623,0.02,-0.01,-0.07,0.07
17.633,-0.01,0.02,-0.04,0.05
17.643,-0.05,0.01,-0.02,0.06
17.653,-0.05,0.02,0.02,0.06
17.663,-0.05,0.03,0.03,0.06
17.673,-0.03,0.05,-0.01,0.06
17.683,-0.01,0.04,0.01,0.04
17.694,-0.04,0.00,0.05,0.07
17.703,-0.04,-0.02,0.05,0.07
17.714,-0.00,-0.03,0.02,0.03
17.724,0.03,-0.02,-0.03,0.04
17.734,0.04,-0.01,-0.04,0.05
17.744,0.02,-0.01,-0.03,0.04
17.754,-0.01,-0.02,-0.02,0.03
17.764,-0.01,-0.02,-0.01,0.02
17.774,-0.03,-0.01,0.01,0.03
17.784,-0.01,-0.02,0.02,0.03
17.794,0.02,-0.01,0.03,0.03
17.804,0.03,0.01,0.03,0.04
17.814,-0.01,0.03,0.00,0.03
17.824,0.00,0.04,-0.01,0.04
17.834,-0.01,0.06,-0.01,0.06
17.845,0.03,0.06,-0.03,0.07
17.855,0.04,0.03,-0.03,0.06
17.865,0.03,0.03,-0.03,0.05
17.875,0.01,-0.00,-0.00,0.01
17.885,-0.01,-0.02,-0.00,0.02
17.895,0.00,-0.02,-0.01,0.03
17.905,0.00,-0.01,-0.04,0.04
17.915,0.01,-0.03,-0.00,0.03
17.925,0.03,-0.02,-0.01,0.04
17.935,0.06,-0.00,0.02,0.07
17.945,0.07,0.01,0.04,0.09
17.955,0.07,0.01,0.04,0.08
17.965,0.02,-0.01,0.03,0.04
17.975,0.02,-0.14,0.01,0.15
17.985,0.02,-0.24,-0.06,0.25
17.996,-0.03,0.11,-0.04,0.12
18.006,-0.02,0.22,0.04,0.22
18.016,0.06,0.17,0.11,0.21
18.026,-0.02,0.19,0.10,0.22
18.036,0.02,0.03,0.00,0.03
18.046,-0.06,-0.10,-0.21,0.24
18.056,-0.17,-0.16,-0.19,0.30
18.066,-0.00,-0.08,0.06,0.10
18.076,0.01,-0.05,0.15,0.16
18.086,0.04,-0.04,0.06,0.08
18.096,-0.05,-0.04,0.04,0.07
18.106,-0.10,-0.01,0.01,0.10
18.117,-0.12,-0.03,0.01,0.12
18.126,-0.10,-0.04,-0.04,0.11
18.137,-0.07,-0.02,-0.11,0.13
18.147,0.01,0.00,-0.18,0.18
18.157,0.06,0.02,-0.19,0.20
18.167,0.08,0.03,-0.16,0.18
18.177,0.08,0.04,-0.06,0.11
18.187,0.06,0.05,0.09,0.12
18.197,0.02,0.04,0.18,0.19
18.207,0.00,0.04,0.19,0.19
18.217,-0.02,0.02,0.13,0.13
18.227,-0.04,-0.01,0.07,0.08
18.237,-0.02,-0.04,0.02,0.05
18.247,0.01,-0.03,-0.01,0.03
18.257,0.02,-0.01,-0.06,0.06
18.267,0.05,0.01,-0.07,0.09
18.278,0.06,0.01,-0.03,0.07
18.287,0.05,0.02,-0.01,0.06
18.298,0.03,0.01,0.04,0.05
18.308,0.02,-0.01,0.05,0.05
18.318,0.03,-0.01,0.06,0.07
18.328,0.04,-0.01,0.03,0.05
18.338,0.05,-0.02,-0.00,0.05
18.348,0.03,-0.01,-0.04,0.05
18.358,0.01,-0.00,-0.06,0.06
18.368,-0.02,-0.02,-0.03,0.04
18.378,-0.06,-0.01,-0.02,0.07
18.388,-0.08,-0.01,-0.02,0.09
18.399,-0.10,0.01,-0.04,0.11
18.408,-0.12,0.04,-0.02,0.12
18.419,-0.09,0.06,-0.01,0.11
18.428,-0.07,0.07,-0.02,0.10
18.439,-0.04,0.06,-0.03,0.08
18.449,-0.02,0.04,-0.04,0.06
18.459,0.01,0.02,-0.01,0.03
18.469,0.02,0.00,0.01,0.03
18.479,0.04,-0.03,0.04,0.06
18.489,0.04,-0.05,0.03,0.07
18.499,0.04,-0.06,0.00,0.07
18.509,0.03,-0.04,-0.01,0.05
18.519,-0.01,0.01,-0.02,0.02
18.529,-0.02,0.02,0.01,0.03
18.539,-0.03,0.02,0.00,0.03
18.549,-0.02,0.03,-0.01,0.03
18.559,-0.02,0.04,0.00,0.05
18.569,-0.01,0.08,0.01,0.08
18.580,0.01,0.04,0.01,0.04
18.590,0.02,0.03,-0.02,0.04
18.600,0.04,0.03,-0.05,0.07
18.610,0.06,0.00,-0.06,0.09
18.620,0.06,-0.06,-0.02,0.08
18.630,0.04,-0.03,-0.01,0.05
18.640,0.04,0.00,-0.03,0.05
18.650,0.02,0.03,-0.02,0.04
18.660,0.01,0.05,0.00,0.05
18.670,0.00,0.04,0.04,0.06
18.680,-0.03,0.02,0.06,0.07
18.690,-0.07,0.00,0.06,0.09
18.700,-0.05,-0.01,0.02,0.05
18.710,-0.08,-0.02,-0.04,0.09
18.721,-0.09,-0.04,-0.08,0.13
18.731,-0.10,-0.03,-0.10,0.14
18.741,-0.06,-0.03,-0.07,0.10
18.751,-0.04,-0.05,-0.01,0.07
18.761,-0.04,-0.03,0.02,0.05
18.771,-0.03,0.05,-0.02,0.06
18.781,-0.03,0.11,-0.02,0.11
18.791,0.01,0.08,-0.00,0.08
18.799,0.03,-0.02,0.04,0.05
18.809,-0.00,-0.07,0.03,0.07
18.819,-0.06,-0.10,-0.01,0.12
18.829,-0.06,-0.16,-0.03,0.17
18.839,-0.05,-0.12,-0.11,0.17
18.849,-0.01,0.18,-0.14,0.23
18.859,0.10,0.39,-0.03,0.40
18.869,0.17,0.14,0.13,0.25
18.879,0.06,-0.18,0.16,0.25
18.889,-0.01,-0.23,0.05,0.24
18.899,0.08,-0.15,-0.07,0.19
18.909,0.18,-0.05,-0.06,0.19
18.919,0.15,-0.01,0.04,0.15
18.930,0.07,-0.00,0.08,0.11
18.940,0.01,0.01,0.03,0.03
18.950,-0.00,0.06,-0.06,0.09
18.960,0.02,0.13,-0.10,0.17
18.970,0.02,0.16,-0.07,0.17
18.980,-0.03,0.12,-0.02,0.13
18.990,-0.11,0.07,0.01,0.13
19.000,-0.18,0.04,0.01,0.18
19.010,-0.16,0.01,-0.00,0.16
19.020,-0.08,-0.02,0.02,0.08
19.030,-0.02,-0.01,0.04,0.05
19.040,0.02,-0.03,0.03,0.05
19.050,0.06,-0.02,-0.02,0.07
19.060,0.09,-0.01,-0.03,0.09
19.070,0.12,-0.00,-0.04,0.13
19.081,0.13,0.00,-0.01,0.13
19.091,0.10,-0.00,0.02,0.11
19.101,0.10,-0.02,0.05,0.12
19.111,0.07,-0.01,0.06,0.10
19.121,0.05,-0.03,0.04,0.07
19.131,0.01,-0.03,0.01,0.04
19.141,0.01,-0.02,-0.03,0.04
19.155,-0.03,-0.00,-0.07,0.08
19.165,-0.03,0.00,-0.08,0.09
19.175,-0.05,-0.00,-0.05,0.07
19.185,-0.05,0.00,-0.00,0.05
19.195,-0.06,-0.02,-0.01,0.07
19.205,-0.07,-0.01,0.00,0.07
19.215,-0.07,-0.01,0.00,0.07
19.225,-0.07,-0.00,0.01,0.07
19.235,-0.08,0.00,0.01,0.08
19.245,-0.07,0.01,-0.01,0.07
19.255,-0.08,-0.00,-0.03,0.08
19.266,-0.05,0.02,-0.03,0.06
19.276,-0.03,0.02,-0.02,0.04
19.286,-0.01,0.02,-0.03,0.04
19.296,-0.02,0.00,-0.03,0.03
19.306,0.01,0.00,-0.03,0.03
19.316,0.05,-0.01,-0.01,0.05
19.326,0.06,0.00,0.01,0.06
19.336,0.07,0.02,0.04,0.08
19.346,0.08,0.00,0.05,0.09
19.356,0.09,-0.01,0.05,0.10
19.366,0.07,-0.02,0.04,0.08
19.376,0.06,-0.04,0.00,0.07
19.386,0.04,-0.03,-0.03,0.06
19.396,0.05,-0.03,-0.07,0.09
19.407,0.02,-0.04,-0.05,0.07
19.417,0.02,-0.01,-0.04,0.05
19.427,0.02,0.01,-0.02,0.03
19.437,0.02,0.04,0.02,0.05
19.447,-0.02,0.02,0.04,0.05
19.457,-0.03,0.03,0.05,0.06
19.467,-0.02,0.02,0.03,0.05
19.477,-0.02,-0.00,0.00,0.02
19.487,-0.01,-0.01,-0.00,0.01
19.497,0.01,-0.02,-0.02,0.03
19.507,0.01,-0.01,-0.04,0.05
19.517,0.01,-0.00,-0.04,0.04
19.527,-0.02,0.01,-0.04,0.05
19.537,-0.04,0.01,-0.03,0.05
19.548,-0.04,0.01,-0.02,0.05
19.557,-0.04,0.02,-0.01,0.05
19.568,-0.04,0.01,-0.02,0.05
19.578,-0.05,0.01,-0.00,0.05
19.588,-0.03,0.00,0.02,0.04
19.598,-0.03,0.01,0.03,0.04
19.608,-0.03,-0.01,0.01,0.04
19.618,-0.04,0.01,-0.02,0.04
19.628,-0.01,-0.01,-0.02,0.03
19.638,0.01,-0.00,-0.00,0.01
19.648,0.00,-0.00,-0.02,0.02
19.658,-0.00,-0.02,-0.01,0.02
19.668,0.00,-0.03,-0.03,0.04
19.678,0.01,-0.02,-0.04,0.04
19.688,0.01,-0.01,-0.04,0.04
19.698,-0.01,0.01,-0.03,0.03
19.709,0.01,-0.00,-0.01,0.01
19.719,0.04,0.01,-0.03,0.05
19.729,0.05,0.01,-0.01,0.06
19.739,0.04,0.01,0.02,0.05
19.749,0.02,-0.01,0.03,0.04
19.759,0.02,-0.03,0.04,0.05
19.769,0.01,-0.04,0.02,0.04
19.779,0.02,-0.04,-0.03,0.05
19.789,0.04,-0.01,0.00,0.04
19.799,0.07,-0.01,0.01,0.07
19.809,0.07,0.02,-0.01,0.07
19.819,0.06,0.02,-0.01,0.06
19.829,0.06,0.02,0.00,0.06
19.840,0.03,0.03,0.00,0.04
19.850,0.03,0.03,0.00,0.04
19.860,-0.00,0.01,-0.01,0.01
19.870,-0.01,0.01,-0.01,0.02
19.880,-0.02,0.01,-0.01,0.02
19.890,-0.01,0.00,-0.00,0.01
19.900,-0.03,0.02,0.01,0.04
19.910,-0.01,0.02,-0.03,0.04
19.920,-0.02,0.02,-0.02,0.03
19.930,-0.03,0.01,-0.02,0.04
19.940,-0.02,0.02,-0.03,0.05
19.950,-0.01,0.00,-0.02,0.02
19.960,-0.00,-0.01,-0.01,0.01
19.970,-0.03,-0.00,0.01,0.03
19.980,-0.02,-0.03,-0.01,0.03
19.990,-0.01,-0.03,0.02,0.04
20.001,-0.04,-0.03,0.02,0.05
20.011,-0.03,-0.01,-0.01,0.04
20.021,-0.01,-0.00,-0.02,0.03
20.031,-0.01,0.00,-0.03,0.04
20.041,0.00,0.02,-0.03,0.03
20.051,0.01,0.03,-0.03,0.04
20.061,-0.00,0.03,-0.02,0.04
20.071,0.01,0.03,-0.01,0.03
20.081,0.01,0.03,-0.01,0.04
20.091,-0.01,0.03,0.01,0.03
20.101,-0.02,0.00,0.01,0.03
20.111,-0.01,0.00,0.01,0.02
20.121,-0.00,-0.01,0.00,0.01
20.131,0.02,-0.01,-0.01,0.03
20.141,0.02,0.00,-0.00,0.02
20.152,0.03,-0.01,-0.03,0.04
20.162,0.03,-0.02,-0.02,0.04
20.172,0.03,-0.00,0.00,0.03
20.182,0.03,0.02,0.00,0.04
20.192,0.02,0.01,0.01,0.02
20.202,0.01,-0.01,0.01,0.02
20.212,0.02,-0.02,0.01,0.03
20.222,0.01,-0.02,0.00,0.03
20.232,0.02,-0.01,0.00,0.02
20.242,0.01,-0.02,0.01,0.03
20.252,0.00,-0.00,-0.03,0.03
20.262,0.01,-0.00,-0.04,0.05
20.272,0.01,0.01,-0.03,0.03
20.282,0.00,0.01,-0.02,0.03
20.293,-0.00,0.02,-0.02,0.02
20.303,0.00,0.01,-0.00,0.01
20.313,-0.02,0.01,0.01,0.03
20.323,-0.04,-0.01,0.01,0.04
20.333,-0.03,-0.00,-0.01,0.03
20.343,-0.01,-0.01,-0.01,0.01
20.353,0.01,0.01,-0.01,0.02
20.363,0.00,0.01,0.00,0.01
20.373,0.02,0.02,-0.01,0.03
20.383,0.01,0.02,0.00,0.03
20.393,0.03,0.02,0.01,0.03
20.403,0.00,0.01,-0.01,0.01
20.413,-0.01,0.01,-0.02,0.02
20.423,-0.02,-0.02,-0.03,0.04
20.434,-0.02,-0.02,-0.05,0.05
20.444,-0.02,-0.02,-0.02,0.04
20.454,-0.03,-0.01,-0.03,0.05
20.464,-0.03,-0.00,-0.00,0.03
20.474,-0.01,-0.00,0.02,0.02
20.484,0.01,0.00,0.00,0.01
20.494,0.02,0.01,-0.01,0.02
20.504,0.03,-0.01,-0.01,0.03
20.514,0.02,-0.01,-0.00,0.02
20.524,0.03,0.00,0.00,0.03
20.534,0.04,0.00,-0.01,0.04
20.544,0.04,0.01,0.00,0.05
20.554,0.03,0.00,0.01,0.03
20.564,0.01,0.00,0.00,0.01
20.575,0.02,-0.00,-0.01,0.02
20.585,0.00,-0.01,-0.02,0.03
20.595,-0.01,-0.00,-0.01,0.01
20.605,-0.02,0.01,-0.01,0.03
20.615,-0.02,0.01,-0.03,0.03
20.625,-0.01,0.01,-0.00,0.01
20.635,0.00,0.01,0.01,0.01
20.645,-0.02,0.01,-0.01,0.02
20.655,-0.02,0.02,-0.01,0.03
20.665,-0.01,0.03,-0.01,0.03
20.675,-0.01,0.02,-0.00,0.02
20.685,-0.01,-0.02,0.01,0.02
20.695,0.02,-0.01,0.00,0.02
20.705,0.02,-0.01,0.01,0.02
20.715,0.01,-0.02,0.01,0.03
20.726,-0.00,-0.01,0.00,0.01
20.736,-0.02,-0.02,-0.02,0.03
20.746,0.01,-0.00,-0.02,0.02
20.756,0.01,0.00,-0.02,0.02
20.766,0.02,0.02,-0.02,0.03
20.776,0.02,0.03,0.02,0.04
20.786,0.01,0.03,0.04,0.05
20.796,-0.00,0.03,0.04,0.05
20.806,-0.00,0.05,0.03,0.06
20.816,-0.00,0.05,0.00,0.05
20.826,-0.01,0.01,-0.03,0.03
20.836,-0.03,-0.02,-0.02,0.04
20.846,-0.06,-0.04,0.01,0.07
20.856,-0.09,-0.05,0.06,0.11
20.866,-0.10,-0.07,0.11,0.17
20.877,-0.16,-0.12,0.12,0.23
20.887,-0.20,-0.19,0.07,0.28
20.897,-0.20,-0.31,0.02,0.37
20.907,-0.28,-0.50,-0.13,0.59
20.917,-0.36,-0.58,-0.27,0.73
20.927,-0.39,-0.32,-0.37,0.63
20.937,-0.28,0.14,-0.36,0.47
20.947,-0.10,0.40,-0.18,0.45
20.957,0.08,0.46,0.05,0.47
20.967,0.12,0.44,0.13,0.47
20.977,0.12,0.36,0.13,0.40
20.987,0.12,0.26,0.06,0.29
20.997,0.10,0.14,0.02,0.17
21.007,0.09,0.04,-0.02,0.10
21.018,0.11,-0.01,0.01,0.11
21.028,0.17,-0.01,0.08,0.19
21.038,0.23,0.02,0.10,0.26
21.048,0.30,0.07,0.10,0.33
21.058,0.37,0.12,0.08,0.40
21.068,0.44,0.15,0.05,0.47
21.078,0.47,0.11,0.00,0.48
21.088,0.44,0.05,-0.04,0.45
21.098,0.41,-0.02,-0.03,0.41
21.108,0.37,-0.03,0.01,0.37
21.118,0.38,-0.04,0.06,0.39
21.128,0.38,-0.03,0.06,0.39
21.138,0.36,0.02,0.07,0.36
21.148,0.33,0.04,0.05,0.34
21.159,0.29,0.06,0.03,0.30
21.169,0.20,0.10,-0.03,0.23
21.179,0.17,0.04,-0.08,0.19
21.189,-0.07,0.10,0.06,0.14
21.199,-0.26,0.27,0.01,0.38
21.209,-0.01,-0.12,-0.04,0.13
21.219,-0.17,-0.20,0.08,0.27
21.229,-0.34,-0.13,0.04,0.37
21.239,-0.61,-0.06,-0.27,0.67
21.249,-0.64,0.13,-0.40,0.77
21.259,-0.42,0.09,-0.31,0.53
21.269,-0.09,-0.45,0.10,0.47
21.279,-0.18,-0.42,0.49,0.67
21.289,-0.25,-0.30,0.20,0.44
21.299,-0.72,-0.19,-0.55,0.92
21.309,-0.85,0.16,-0.20,0.89
21.320,-0.30,0.35,-0.01,0.46
21.330,0.05,0.19,0.07,0.21
21.340,0.47,-0.18,0.32,0.60
21.350,-0.02,-0.01,0.09,0.10
21.360,-0.48,0.04,-0.27,0.55
21.370,-0.53,0.14,-0.36,0.65
21.380,-0.20,0.25,-0.09,0.33
21.390,0.55,0.16,0.21,0.61
21.400,0.39,0.17,0.11,0.44
21.410,0.05,0.23,-0.02,0.24
21.420,-0.15,0.22,-0.12,0.29
21.430,-0.32,0.11,-0.01,0.34
21.440,-0.06,0.03,0.20,0.21
21.450,0.39,-0.20,0.39,0.59
21.461,0.60,-0.46,0.37,0.84
21.471,0.42,-0.54,0.18,0.70
21.481,0.19,-0.48,-0.11,0.52
21.491,-0.07,-0.37,-0.27,0.47
21.501,-0.23,-0.25,-0.18,0.38
21.511,-0.18,-0.11,0.06,0.22
21.521,-0.11,0.09,0.15,0.21
21.531,-0.04,0.27,0.02,0.27
21.541,0.04,0.24,-0.10,0.26
21.551,0.10,0.18,-0.20,0.29
21.561,0.08,0.05,-0.14,0.17
21.571,-0.07,-0.11,-0.01,0.13
21.581,-0.25,-0.23,0.11,0.36
21.592,-0.15,-0.18,0.11,0.26
21.602,0.03,-0.16,-0.08,0.18
21.612,-0.16,-0.16,-0.04,0.23
21.622,-0.35,-0.08,-0.14,0.39
21.632,-0.34,-0.03,-0.11,0.36
21.642,-0.17,0.01,-0.10,0.20
21.652,0.03,0.09,-0.04,0.10
21.662,0.17,0.23,0.23,0.37
21.672,-0.50,-0.26,0.30,0.64
21.682,-0.31,-0.38,0.52,0.71
21.692,0.30,0.02,0.48,0.57
21.702,0.16,0.50,0.21,0.56
21.712,0.13,0.88,-0.42,0.99
21.722,-0.00,0.84,-0.59,1.02
21.732,0.03,0.39,-0.39,0.55
21.743,0.11,-0.28,-0.25,0.40
21.753,0.25,-0.88,-0.15,0.92
21.763,0.27,-0.94,-0.08,0.98
21.773,0.46,-0.49,0.08,0.67
21.783,0.67,0.36,0.11,0.77
21.793,0.67,1.02,-0.12,1.23
21.803,0.71,1.08,-0.08,1.30
21.813,0.98,0.72,0.12,1.22
21.823,0.93,0.25,0.16,0.97
21.833,0.62,-0.13,0.14,0.65
21.843,0.22,-0.42,0.04,0.48
21.853,-0.17,-0.63,-0.19,0.68
21.863,-0.42,-0.78,-0.46,1.00
21.874,-0.40,-0.85,-0.64,1.14
21.883,-0.30,-0.74,-0.61,1.00
21.894,-0.37,-0.37,-0.20,0.56
21.904,-0.45,0.01,0.17,0.48
21.914,-0.36,0.36,0.52,0.73
21.924,0.01,0.68,0.95,1.17
21.934,0.49,0.62,0.46,0.91
21.944,0.77,0.23,-0.49,0.94
21.954,0.62,-0.27,-0.97,1.18
21.964,-0.68,-0.51,-1.21,1.47
21.974,-0.92,-0.21,-1.10,1.45
21.984,-0.17,0.42,-0.76,0.88
21.994,0.59,1.03,-0.61,1.34
22.004,0.64,1.38,-0.71,1.68
22.014,0.43,1.39,-0.64,1.59
22.024,0.21,1.36,-0.53,1.47
22.038,0.42,1.45,-0.40,1.56
22.045,0.69,1.75,-0.14,1.89
22.055,1.07,2.28,0.05,2.52
22.065,2.19,2.83,-0.03,3.58
22.075,4.09,3.27,0.25,5.25
22.085,5.10,3.21,0.69,6.07
22.095,4.32,2.41,0.54,4.97
22.105,2.78,1.42,0.20,3.13
22.115,1.42,0.85,-0.14,1.66
22.125,0.36,0.77,-0.88,1.23
22.135,-0.57,0.89,-1.33,1.70
22.145,-1.14,0.96,-0.86,1.73
22.155,-0.73,1.44,-0.68,1.75
22.165,0.08,1.91,-0.37,1.95
22.175,0.41,2.10,-0.12,2.14
22.185,0.72,1.71,-0.39,1.90
22.196,1.64,1.02,-0.74,2.07
22.206,1.72,0.18,-0.78,1.90
22.216,0.66,-0.49,-1.09,1.37
22.226,0.03,-0.58,-1.49,1.60
22.236,-0.08,-0.68,-1.68,1.81
22.246,-0.13,-0.89,-1.78,2.00
22.256,-0.44,-0.95,-1.79,2.07
22.266,-0.70,-0.98,-1.85,2.20
22.276,-0.32,-1.04,-1.97,2.26
22.286,0.27,-1.27,-1.93,2.32
22.296,0.45,-1.70,-1.61,2.39
22.306,0.13,-1.83,-1.88,2.63
22.316,-0.49,-1.72,-2.08,2.75
22.326,-0.66,-1.70,-1.95,2.67
22.336,-0.04,-1.63,-2.13,2.68
22.347,0.86,-1.73,-2.15,2.89
22.357,1.51,-2.31,-2.41,3.67
22.367,1.45,-3.17,-2.55,4.32
22.377,1.58,-3.53,-2.89,4.83
22.387,1.43,-2.50,-2.63,3.90
22.397,1.05,-2.34,-2.15,3.35
22.407,0.31,-1.88,-1.55,2.45
22.417,-0.42,-1.86,-1.04,2.17
22.427,-0.57,-1.93,-0.65,2.11
22.437,0.01,-1.66,-0.84,1.86
22.448,1.34,-1.45,-0.68,2.08
22.457,2.28,-1.40,-0.30,2.69
22.467,2.09,-0.98,0.11,2.31
22.478,0.79,-1.02,-0.04,1.29
22.488,-0.09,-0.96,0.07,0.96
22.498,-0.49,-0.64,0.20,0.83
22.508,-0.21,-1.05,0.27,1.10
22.518,0.39,-1.41,0.16,1.47
22.528,1.50,-1.13,-0.69,2.00
22.538,2.28,-1.16,-1.53,2.98
22.548,1.49,-1.04,-2.25,2.89
22.558,0.62,-0.62,-2.28,2.44
22.568,-0.16,-0.41,-2.13,2.17
22.578,-0.10,-1.13,-2.54,2.78
22.588,0.39,-1.14,-2.97,3.20
22.599,0.55,-1.22,-3.53,3.77
22.609,1.39,-1.32,-4.05,4.48
22.618,1.36,-0.93,-5.07,5.33
22.629,0.62,-0.74,-5.83,5.91
22.639,0.17,-1.17,-5.67,5.79
22.649,0.12,-2.07,-4.87,5.29
22.659,-0.23,-1.83,-3.42,3.89
22.669,-0.88,-1.37,-2.64,3.10
22.679,-0.86,-1.34,-2.62,3.07
22.689,-0.36,-1.17,-2.18,2.50
22.699,0.00,-1.42,-1.61,2.15
22.709,-0.50,-1.90,-1.98,2.79
22.719,0.37,-1.87,-2.99,3.55
22.729,0.62,-0.52,-2.47,2.60
22.739,-0.16,0.10,2.33,2.34
22.749,0.30,-1.46,4.20,4.45
22.760,0.12,-2.68,4.20,4.98
22.770,0.03,-3.12,3.17,4.45
22.780,-0.80,-2.46,1.81,3.15
22.790,-1.84,-2.11,0.62,2.87
22.800,-2.39,-2.08,-0.59,3.22
22.810,1.04,-1.51,-6.61,6.86
22.820,-0.10,-1.65,-3.44,3.82
22.830,0.64,-0.72,-2.62,2.79
22.840,-0.58,0.35,-2.61,2.69
22.850,0.83,1.00,-2.34,2.67
22.860,2.42,1.21,-1.29,3.00
22.870,2.98,0.66,0.04,3.05
22.880,2.34,0.02,-0.15,2.34
22.890,1.03,-0.04,-1.32,1.67
22.900,1.06,-0.33,-1.38,1.77
22.911,0.84,-0.57,-1.49,1.80
22.921,0.36,-0.72,-1.74,1.92
22.931,-0.19,-0.62,-1.97,2.07
22.941,-0.67,-0.26,-1.93,2.06
22.951,-1.08,0.10,-1.95,2.23
22.961,-1.77,0.33,-2.37,2.97
22.971,-2.39,0.33,-2.34,3.36
22.981,-2.35,0.17,-1.55,2.82
22.991,-1.64,-0.04,-0.72,1.80
23.001,-0.66,-0.17,-0.26,0.73
23.011,0.27,-0.22,-0.10,0.36
23.021,0.93,-0.21,0.31,1.00
23.031,0.90,-0.29,0.91,1.31
23.041,0.34,-0.40,1.29,1.39
23.051,0.26,0.08,1.66,1.68
23.062,0.34,0.11,1.56,1.60
23.072,0.26,-0.38,1.20,1.29
23.082,0.13,-0.75,0.85,1.15
23.092,0.33,-0.49,0.53,0.79
23.102,0.46,-0.19,0.16,0.52
23.112,0.35,-0.08,-0.10,0.38
23.122,0.38,-0.08,-0.22,0.44
23.132,0.56,-0.14,-0.27,0.64
23.142,0.80,-0.08,-0.31,0.86
23.152,0.99,0.11,-0.34,1.05
23.162,1.11,0.29,-0.49,1.24
23.172,1.10,0.31,-0.64,1.31
23.182,1.07,0.28,-0.73,1.32
23.192,1.09,0.16,-0.70,1.30
23.203,1.03,0.06,-0.46,1.13
23.213,0.86,-0.01,-0.14,0.87
23.223,0.71,-0.06,0.11,0.72
23.233,0.59,-0.10,0.17,0.62
23.243,0.48,-0.11,0.09,0.50
23.253,0.47,-0.14,-0.05,0.49
23.263,0.53,-0.22,-0.14,0.59
23.273,0.49,-0.26,-0.07,0.56
23.283,0.44,-0.34,0.19,0.59
23.293,0.47,-0.43,0.58,0.86
23.303,0.39,-0.62,1.02,1.26
23.313,0.21,-0.83,0.69,1.10
23.323,0.41,-0.70,0.68,1.06
23.333,0.67,-0.41,0.63,1.01
23.343,0.84,-0.28,0.31,0.94
23.353,0.85,-0.19,0.06,0.87
23.364,0.71,-0.06,0.03,0.71
23.374,0.50,0.25,-0.14,0.57
23.384,0.27,0.30,-0.08,0.41
23.394,0.08,0.37,-0.11,0.40
23.404,0.10,0.32,-0.10,0.35
23.414,0.21,0.29,-0.11,0.38
23.424,0.46,0.10,0.01,0.47
23.434,0.75,-0.14,0.28,0.81
23.444,0.78,-0.30,0.45,0.96
23.454,0.75,-0.48,0.57,1.06
23.464,0.72,-0.57,0.61,1.10
23.474,0.62,-0.56,0.46,0.95
23.484,0.52,-0.56,0.20,0.79
23.494,0.44,-0.47,-0.04,0.64
23.505,0.51,-0.37,-0.28,0.69
23.515,0.66,-0.25,-0.50,0.86
23.525,0.70,-0.19,-0.64,0.97
23.535,0.79,-0.13,-0.63,1.01
23.545,0.88,-0.07,-0.61,1.08
23.556,0.82,-0.06,-0.66,1.05
23.565,0.72,-0.16,0.05,0.74
23.575,-0.00,0.23,-1.17,1.19
23.585,-0.90,0.16,-1.86,2.07
23.595,-0.83,0.19,-1.76,1.95
23.605,-0.32,0.28,-1.06,1.14
23.615,-0.37,0.81,-0.37,0.96
