time,ax,ay,az,atotal
0.000,-0.55,0.66,-0.88,1.23
0.010,-0.52,0.46,-0.54,0.88
0.020,-0.24,0.31,-0.05,0.40
0.030,0.06,0.10,0.45,0.46
0.040,0.17,-0.18,0.74,0.78
0.050,0.20,-0.28,1.08,1.13
0.060,0.36,-0.33,1.23,1.32
0.070,0.57,-0.55,1.00,1.28
0.081,0.67,-0.66,0.69,1.17
0.091,0.75,-0.43,0.43,0.96
0.101,0.66,-0.21,0.18,0.71
0.111,0.48,-0.08,-0.10,0.49
0.121,0.39,0.02,-0.44,0.59
0.131,0.41,0.03,-0.63,0.76
0.141,0.50,-0.02,-0.72,0.88
0.151,0.58,-0.12,-0.69,0.91
0.161,0.73,-0.16,-0.59,0.95
0.171,0.92,-0.26,-0.39,1.03
0.181,1.00,-0.45,-0.05,1.10
0.191,0.94,-0.65,0.45,1.23
0.201,0.92,-0.83,0.86,1.51
0.211,1.07,-1.13,1.06,1.89
0.221,1.28,-1.31,1.16,2.17
0.231,1.29,-1.46,1.15,2.26
0.242,1.02,-1.61,1.32,2.32
0.252,0.84,-1.61,1.47,2.33
0.262,0.90,-1.73,1.63,2.54
0.272,0.99,-1.76,1.71,2.65
0.282,1.01,-1.73,1.83,2.71
0.292,1.04,-1.72,2.15,2.94
0.302,1.23,-1.89,2.28,3.20
0.312,1.29,-2.12,2.22,3.33
0.322,1.36,-2.10,2.21,3.34
0.332,1.59,-1.93,2.08,3.25
0.342,1.10,-2.17,1.42,2.82
0.352,1.29,-2.00,0.89,2.54
0.362,1.39,-1.38,0.46,2.01
0.373,1.64,-1.22,0.25,2.06
0.383,1.91,-0.94,0.00,2.13
0.393,2.17,-0.94,-0.07,2.37
0.403,2.47,-0.91,0.29,2.65
0.413,2.58,-1.42,0.38,2.97
0.423,1.87,-1.65,0.33,2.51
0.433,1.41,-0.76,0.13,1.61
0.443,1.92,-0.57,-0.44,2.05
0.453,2.03,-1.08,-0.52,2.36
0.463,1.98,-1.15,-0.12,2.29
0.473,2.22,-1.19,0.10,2.52
0.483,2.52,-1.43,0.15,2.90
0.493,2.78,-1.47,0.08,3.15
0.503,1.98,-1.41,0.00,2.43
0.513,1.55,-1.59,0.34,2.24
0.524,1.42,-1.23,0.59,1.97
0.534,0.79,-0.97,0.53,1.36
0.544,0.46,-0.85,0.39,1.04
0.554,0.16,-0.75,0.55,0.95
0.564,-0.14,-0.59,0.82,1.02
0.574,-0.77,-0.18,0.81,1.13
0.584,-0.94,0.05,0.69,1.17
0.594,-0.99,0.28,0.35,1.09
0.604,-1.28,0.49,-0.30,1.40
0.614,-1.70,0.32,-1.19,2.10
0.624,-2.04,0.51,-1.72,2.72
0.634,-2.25,0.68,-1.79,2.96
0.644,-2.41,0.56,-1.78,3.05
0.654,-2.48,0.26,-1.61,2.97
0.665,-2.51,-0.03,-1.54,2.94
0.675,-2.40,-0.14,-1.68,2.94
0.685,-2.22,-0.22,-1.86,2.90
0.695,-2.05,-0.32,-1.72,2.70
0.705,-1.93,-0.42,-1.24,2.33
0.715,-1.60,-0.47,-0.63,1.78
0.725,-1.33,-0.47,-0.23,1.43
0.735,-1.28,-0.47,-0.25,1.39
0.745,-1.14,-0.59,-0.29,1.32
0.755,-0.74,-0.85,0.68,1.32
0.765,0.46,-1.46,3.77,4.07
0.775,-0.08,-1.38,1.21,1.83
0.785,-0.68,-1.51,-0.59,1.76
0.795,-0.43,-1.36,-0.45,1.50
0.805,-0.01,-0.77,-1.18,1.41
0.816,-0.01,-0.33,-1.54,1.57
0.826,-0.13,-0.49,-1.05,1.17
0.836,-0.49,-1.18,-0.72,1.46
0.846,-1.02,-1.38,-0.29,1.75
0.856,-1.12,-1.20,-0.21,1.66
0.866,-1.07,-0.96,-0.46,1.51
0.876,-0.88,-0.82,-0.66,1.37
0.886,-0.65,-0.71,-0.91,1.32
0.896,-0.29,-0.78,-0.86,1.20
0.906,-0.09,-0.71,-1.00,1.23
0.916,-0.07,-0.45,-1.43,1.51
0.926,-0.16,-0.19,-1.80,1.82
0.936,-0.58,-0.20,-2.09,2.18
0.946,-0.13,0.03,-2.27,2.27
0.956,1.48,-0.23,-0.64,1.63
0.967,0.34,-0.98,-0.27,1.07
0.977,0.49,-1.01,0.69,1.32
0.987,0.25,-0.73,0.48,0.91
0.997,-0.06,-0.92,0.35,0.99
1.007,-0.09,-1.12,0.40,1.19
1.017,-0.13,-0.74,-0.60,0.96
1.027,0.07,-0.25,-1.13,1.16
1.037,-0.88,-0.29,-0.59,1.10
1.047,-1.52,-0.17,0.57,1.63
1.057,-0.65,0.17,1.46,1.61
1.067,0.12,-0.11,2.03,2.04
1.077,0.13,-0.84,1.18,1.46
1.087,0.13,-1.04,0.22,1.07
1.097,0.30,-0.87,-0.16,0.94
1.107,0.79,-0.50,0.03,0.93
1.118,0.34,-0.22,0.08,0.41
1.128,-0.29,-0.03,-0.23,0.37
1.138,-0.49,0.03,-0.15,0.51
1.148,-0.44,0.12,-0.33,0.56
1.158,-0.02,0.30,-0.52,0.60
1.168,-0.23,0.05,-1.18,1.20
1.178,-0.35,-0.02,-1.52,1.56
1.188,0.26,0.47,-1.24,1.35
1.198,-1.15,0.66,0.50,1.42
1.208,-1.49,0.46,2.18,2.68
1.218,-1.02,0.40,0.64,1.27
1.228,-1.04,0.18,0.48,1.16
1.238,-0.57,0.29,0.42,0.76
1.249,-0.36,0.27,0.45,0.64
1.259,0.68,0.17,0.03,0.70
1.269,1.12,-0.26,-1.70,2.05
1.279,0.29,-0.38,-1.82,1.88
1.289,0.20,0.04,-0.66,0.69
1.299,0.41,0.03,-0.21,0.46
1.309,0.02,-0.31,-0.60,0.67
1.319,-0.64,-0.29,-1.40,1.57
1.329,-1.43,-0.02,-1.47,2.05
1.339,-1.87,0.49,-1.32,2.34
1.349,-1.80,0.50,-1.04,2.14
1.359,-1.76,0.23,-0.51,1.84
1.369,-0.10,0.04,-1.72,1.73
1.379,0.47,-0.40,-1.91,2.00
1.389,0.46,-1.02,0.65,1.30
1.400,0.44,-1.24,0.60,1.44
1.410,0.49,-0.23,-0.05,0.54
1.420,1.08,2.00,-0.01,2.27
1.430,1.03,2.56,-0.16,2.76
1.440,1.09,2.52,-0.18,2.75
1.450,0.38,2.21,-0.18,2.25
1.460,-0.80,1.81,-0.18,1.99
1.470,-1.70,1.69,-0.22,2.41
1.480,-1.40,1.52,-0.32,2.09
1.490,-0.24,1.09,-0.19,1.14
1.500,0.62,0.83,0.16,1.05
1.510,0.61,0.68,-0.33,0.98
1.520,0.69,0.84,-0.41,1.16
1.530,0.60,0.59,-0.46,0.95
1.540,1.03,0.25,-0.40,1.13
1.551,1.38,0.30,-0.03,1.41
1.561,1.53,1.11,0.31,1.92
1.571,2.81,2.93,1.02,4.19
1.581,-1.93,2.34,3.85,4.90
1.591,1.93,0.25,1.90,2.72
1.601,3.60,-0.54,-0.04,3.65
1.611,1.50,-0.42,0.94,1.82
1.621,1.13,-0.15,-0.14,1.15
1.631,1.76,-0.25,-0.04,1.78
1.641,1.51,-0.58,-0.14,1.62
1.651,1.36,-0.73,-0.46,1.61
1.661,1.41,-0.90,-0.83,1.86
1.671,1.61,-1.24,-0.85,2.21
1.681,1.35,-1.36,-0.66,2.03
1.691,1.20,-1.29,0.00,1.77
1.702,1.02,-0.74,0.18,1.27
1.712,0.57,-0.17,0.06,0.60
1.722,0.07,-0.30,0.19,0.37
1.732,0.49,-0.51,0.34,0.78
1.742,0.88,-0.49,0.41,1.08
1.752,1.06,-0.41,0.49,1.23
1.762,1.40,-0.48,0.77,1.67
1.772,1.45,-0.55,0.99,1.84
1.782,1.01,-0.80,0.77,1.50
1.792,0.02,-1.21,0.47,1.30
1.802,-0.66,-1.41,0.52,1.64
1.812,-0.92,-1.29,0.67,1.72
1.822,-0.74,-0.85,1.03,1.53
1.833,-0.36,-0.38,1.29,1.40
1.842,-0.73,-0.22,0.87,1.16
1.853,-1.04,-0.54,0.40,1.24
1.863,-1.05,-0.94,0.57,1.52
1.873,-1.20,-0.91,0.66,1.65
1.883,-1.20,-0.44,0.31,1.32
1.893,-1.13,-0.26,0.82,1.42
1.903,-1.05,-0.08,1.21,1.60
1.913,-0.69,0.13,0.84,1.09
1.923,-0.44,-0.25,0.49,0.71
1.933,-0.63,-0.73,-0.09,0.97
1.943,-0.99,-1.10,-0.34,1.52
1.953,-1.32,-1.17,-0.35,1.80
1.963,-1.32,-0.98,-0.36,1.68
1.973,-1.09,-0.80,-0.39,1.40
1.983,-0.79,-0.79,-0.48,1.21
1.994,-0.48,-0.89,-0.47,1.12
2.004,-0.82,-1.18,-0.90,1.69
2.014,-1.17,-1.65,-1.12,2.32
2.024,-1.38,-1.91,-1.13,2.61
2.034,-1.33,-1.79,-0.91,2.41
2.044,-1.14,-1.35,-0.43,1.81
2.054,-0.80,-0.83,0.17,1.17
2.064,-0.34,-0.60,0.31,0.75
2.074,-0.17,-0.86,-0.32,0.94
2.084,-0.02,-1.27,-0.65,1.43
2.094,-0.09,-1.39,-0.89,1.65
2.104,-0.12,-1.28,-0.87,1.55
2.114,-0.06,-1.02,-0.63,1.20
2.124,0.14,-0.65,-0.12,0.67
2.134,0.34,-0.33,0.08,0.48
2.144,0.67,-0.41,-0.00,0.79
2.155,0.97,-0.72,-0.26,1.23
2.165,1.14,-0.93,-0.22,1.49
2.175,1.32,-0.77,-0.30,1.55
2.185,1.41,-0.18,-0.19,1.43
2.195,1.11,0.44,0.48,1.29
2.205,0.41,0.73,0.06,0.84
2.215,-0.04,0.56,-0.51,0.76
2.225,-0.32,0.17,-0.61,0.71
2.235,-0.65,0.04,-0.34,0.74
2.245,-0.91,-0.20,0.17,0.95
2.255,-1.20,-0.28,0.46,1.32
2.265,-1.40,-0.29,0.28,1.46
2.275,-1.70,-0.38,-0.39,1.78
2.285,-2.15,-0.80,-0.73,2.41
2.296,-2.23,-1.07,-0.91,2.64
2.306,-1.98,-1.15,-0.66,2.39
2.316,-1.75,-0.86,-0.35,1.98
2.326,-1.36,-0.27,-0.05,1.38
2.336,-1.22,-0.01,0.34,1.27
2.346,-0.95,0.77,0.59,1.35
2.356,-0.08,1.47,0.95,1.75
2.366,0.47,1.48,0.95,1.82
2.376,0.69,1.17,-0.03,1.36
2.386,0.93,0.58,-1.05,1.52
2.396,-0.34,0.88,-0.25,0.98
2.406,0.37,1.54,0.84,1.80
2.417,2.49,1.63,2.58,3.94
2.426,3.03,0.95,3.16,4.48
2.437,1.25,-0.25,1.76,2.17
2.447,-1.68,-1.97,0.03,2.59
2.457,-3.41,-3.20,-0.58,4.72
2.467,-4.13,-3.40,-0.99,5.44
2.477,-3.78,-3.21,-1.02,5.06
2.487,-2.81,-3.26,-0.23,4.31
2.497,-2.03,-2.84,-0.29,3.50
2.507,-1.32,-2.65,-0.32,2.98
2.517,-1.04,-2.46,-0.06,2.67
2.527,-0.31,-2.47,-0.11,2.49
2.537,1.08,-2.74,0.73,3.04
2.547,2.26,-2.68,1.04,3.66
2.557,0.98,-1.87,0.61,2.20
2.567,0.14,-0.91,-0.02,0.92
2.577,0.25,0.09,-0.50,0.57
2.588,2.12,1.07,-1.54,2.83
2.597,4.53,2.49,-2.50,5.74
2.608,5.15,3.80,-3.38,7.23
2.618,4.67,4.24,-2.91,6.95
2.628,4.70,3.78,-2.26,6.44
2.638,4.44,3.73,-1.38,5.96
2.648,2.84,4.45,-2.26,5.74
2.658,0.18,4.61,-0.62,4.65
2.668,-0.48,4.75,-0.27,4.79
2.678,-2.35,4.52,-0.02,5.09
2.688,-4.94,3.36,-0.39,5.99
2.698,-7.67,-0.21,1.39,7.80
2.708,-6.63,-3.11,1.23,7.43
2.718,-5.87,-4.03,-0.19,7.12
2.728,-4.30,-3.71,-1.13,5.79
2.739,-1.48,-2.57,-1.63,3.38
2.749,1.15,-0.76,-1.76,2.24
2.759,2.72,0.10,-1.27,3.00
2.769,3.79,0.31,-0.41,3.83
2.779,4.45,1.19,0.39,4.62
2.789,4.32,1.85,0.68,4.75
2.799,1.96,1.11,1.34,2.62
2.809,-0.12,0.24,2.31,2.32
2.819,-0.50,-0.24,1.71,1.79
2.829,-0.08,-0.63,1.04,1.22
2.839,0.77,-0.46,0.92,1.29
2.849,0.38,-0.82,0.98,1.34
2.859,-0.56,-0.19,0.51,0.78
2.869,-1.02,0.91,0.10,1.37
2.879,-0.46,1.61,0.33,1.71
2.889,0.79,2.02,0.45,2.21
2.900,1.41,1.67,0.46,2.23
2.910,1.29,0.85,0.70,1.70
2.920,-0.91,-2.39,3.60,4.41
2.930,-0.21,-1.17,-3.07,3.30
2.940,-1.65,-0.82,-3.21,3.70
2.950,-0.81,0.16,-1.86,2.03
2.960,0.34,0.52,0.02,0.62
2.971,0.80,0.12,0.56,0.98
2.980,0.35,-0.61,-0.17,0.72
2.990,-0.26,-1.55,-0.38,1.62
3.000,-1.06,-2.34,0.07,2.57
3.010,-0.85,-1.76,-0.36,1.99
3.020,-0.76,-1.02,-0.92,1.57
3.030,-1.09,-0.78,-0.46,1.42
3.041,-1.55,-0.88,-0.10,1.78
3.051,-1.69,-0.95,0.29,1.96
3.061,-1.77,-1.06,0.18,2.07
3.071,-3.09,-1.35,1.06,3.54
3.081,-4.48,-1.50,3.98,6.18
3.091,-2.75,-0.86,4.37,5.23
3.101,0.05,-0.38,3.28,3.30
3.111,2.16,-0.31,2.08,3.02
3.121,2.60,0.07,1.26,2.89
3.131,1.82,0.30,0.85,2.03
3.141,1.39,0.05,-0.29,1.42
3.151,0.60,0.21,-0.84,1.05
3.161,0.14,0.67,-1.29,1.46
3.171,0.76,0.71,-2.09,2.34
3.181,1.27,-0.18,-1.89,2.28
3.192,0.73,0.75,-2.02,2.27
3.202,0.77,1.75,-2.20,2.92
3.212,0.62,1.95,-1.15,2.35
3.222,0.60,2.13,-0.52,2.28
3.232,0.49,2.15,-0.19,2.21
3.242,0.50,2.03,-0.21,2.10
3.252,1.11,2.04,-0.46,2.37
3.262,1.67,1.94,-0.56,2.62
3.272,2.24,1.32,0.01,2.60
3.282,2.02,0.81,0.58,2.26
3.292,0.89,0.65,0.42,1.17
3.302,-0.81,0.27,0.28,0.89
3.312,-1.90,-0.30,0.28,1.94
3.322,-1.88,-0.46,0.23,1.95
3.333,-1.28,-0.46,0.10,1.36
3.343,-0.30,-0.34,-0.27,0.53
3.353,0.40,-0.34,-0.60,0.79
3.363,1.21,-0.20,-0.37,1.28
3.373,2.10,-0.13,-0.00,2.11
3.383,2.63,-0.26,0.21,2.65
3.393,1.61,-0.55,0.29,1.72
3.403,-0.21,-0.69,0.15,0.74
3.413,-0.79,-0.50,0.04,0.94
3.423,-0.43,-0.13,0.13,0.47
3.433,-0.11,0.16,0.04,0.20
3.443,-0.57,-0.07,0.14,0.59
3.453,-0.68,-0.51,0.30,0.91
3.463,-0.71,-0.94,0.25,1.21
3.474,-0.92,-1.25,0.07,1.55
3.484,-0.48,-1.18,-0.24,1.29
3.494,-0.12,-1.06,-0.47,1.17
3.505,-0.22,-0.98,-0.37,1.07
3.514,-0.37,-0.81,-0.19,0.91
3.524,-0.42,-0.52,-0.11,0.68
3.534,-0.21,-0.63,-0.26,0.71
3.544,0.10,-1.21,-0.15,1.22
3.554,0.43,-0.67,-0.11,0.80
3.564,0.36,-0.60,-0.02,0.70
3.574,0.23,-0.91,0.01,0.94
3.584,0.43,-1.00,-0.03,1.09
3.594,0.86,-0.80,0.18,1.19
3.605,0.43,-0.71,0.19,0.85
3.614,0.33,-0.10,0.21,0.41
3.625,0.41,0.51,0.30,0.72
3.635,-0.09,0.49,0.21,0.54
3.645,-0.01,0.78,0.15,0.79
3.655,0.10,1.31,0.06,1.31
3.665,-0.20,1.45,-0.04,1.47
3.675,-0.35,1.41,-0.12,1.46
3.685,-0.59,1.58,-0.25,1.71
3.695,-0.44,1.91,-0.08,1.96
3.705,-0.50,1.61,0.22,1.70
3.715,-0.23,0.87,0.18,0.92
3.725,0.65,1.32,-0.07,1.48
3.735,-0.18,1.06,0.05,1.07
3.745,0.27,1.25,-0.26,1.30
3.755,0.60,1.46,-0.41,1.64
3.766,0.49,1.47,-0.24,1.57
3.776,0.99,1.41,-0.21,1.74
3.786,1.17,1.22,-0.32,1.72
3.796,1.13,1.09,-0.44,1.63
3.806,1.11,0.79,-0.44,1.43
3.816,1.14,0.46,-0.40,1.29
3.826,1.00,0.30,-0.40,1.11
3.836,0.67,0.22,-0.38,0.80
3.846,0.39,-0.05,-0.12,0.41
3.856,-0.04,-0.55,0.29,0.62
3.866,-0.61,-1.00,0.53,1.28
3.876,-0.96,-1.44,0.71,1.87
3.886,-0.85,-1.53,0.80,1.92
3.896,-0.57,-1.40,0.52,1.60
3.906,-0.57,-0.86,0.19,1.05
3.917,-0.49,-0.29,-0.14,0.59
3.927,-0.22,0.16,-0.28,0.39
3.937,0.08,0.43,-0.17,0.47
3.947,0.38,0.51,-0.13,0.64
3.957,0.42,0.45,-0.20,0.64
3.967,0.19,0.31,-0.10,0.38
3.977,-0.25,0.21,-0.19,0.38
3.987,-0.19,0.11,-0.13,0.26
3.997,-0.11,-0.08,0.42,0.44
4.007,-0.25,-0.24,0.40,0.53
4.017,-0.21,-0.28,0.26,0.44
4.027,-0.17,-0.22,0.11,0.30
4.037,-0.21,-0.18,-0.06,0.28
4.047,-0.24,-0.04,-0.04,0.24
4.058,-0.21,0.10,-0.00,0.23
4.068,-0.07,0.19,-0.06,0.21
4.078,0.05,0.19,-0.14,0.24
4.088,0.03,0.20,-0.17,0.26
4.098,-0.03,0.20,-0.11,0.23
4.108,-0.12,0.21,-0.04,0.24
4.118,-0.16,0.21,0.01,0.27
4.128,-0.17,0.21,0.03,0.28
4.138,-0.18,0.16,0.03,0.25
4.148,-0.13,0.14,0.03,0.19
4.158,-0.09,0.08,0.01,0.12
4.168,-0.07,0.03,0.05,0.09
4.178,-0.04,0.01,0.02,0.05
4.188,-0.03,-0.01,0.01,0.03
4.198,-0.01,0.01,-0.01,0.02
4.208,0.03,0.04,-0.04,0.07
4.219,0.10,0.06,-0.08,0.14
4.229,0.13,0.07,-0.08,0.16
4.239,0.16,0.05,-0.09,0.19
4.249,0.15,0.05,-0.07,0.17
4.259,0.11,0.02,-0.03,0.12
4.269,0.09,0.02,0.01,0.09
4.279,0.04,-0.00,0.02,0.05
4.289,-0.00,0.00,0.01,0.01
4.299,-0.01,0.01,0.01,0.02
4.309,-0.04,0.04,-0.02,0.06
4.319,-0.05,0.06,-0.02,0.08
4.329,-0.06,0.08,0.01,0.10
4.339,-0.03,0.11,0.06,0.13
4.349,0.01,0.14,0.05,0.15
4.360,0.03,0.13,0.03,0.13
4.370,0.07,0.13,-0.01,0.15
4.380,0.07,0.10,-0.04,0.12
4.390,0.05,0.05,-0.04,0.09
4.400,0.04,0.02,-0.02,0.04
4.410,0.03,0.00,-0.02,0.03
4.420,0.03,-0.01,-0.02,0.04
4.430,0.05,-0.01,0.00,0.05
4.440,0.06,-0.00,-0.01,0.06
4.450,0.10,0.01,0.00,0.10
4.460,0.10,0.05,0.01,0.11
4.470,0.10,0.06,0.02,0.12
4.480,0.05,0.08,0.03,0.10
4.490,-0.00,0.09,0.03,0.09
4.500,-0.05,0.06,-0.00,0.08
4.511,-0.08,0.04,-0.03,0.09
4.521,-0.04,0.04,-0.03,0.07
4.531,-0.00,0.05,-0.02,0.06
4.541,0.02,0.06,0.01,0.07
4.551,0.05,0.08,-0.01,0.09
4.561,0.07,0.08,-0.01,0.10
4.571,0.08,0.05,0.01,0.10
4.581,0.12,0.03,0.01,0.12
4.591,0.13,0.02,0.05,0.14
4.601,0.12,0.01,0.07,0.14
4.611,0.09,-0.01,0.04,0.10
4.621,0.07,-0.02,0.02,0.07
4.631,0.06,-0.03,-0.02,0.07
4.641,0.04,-0.05,-0.06,0.09
4.652,0.02,-0.06,-0.06,0.08
4.662,0.01,-0.03,-0.07,0.07
4.672,0.01,-0.03,-0.06,0.07
4.682,0.04,-0.01,-0.01,0.04
4.692,0.06,-0.02,0.01,0.07
4.702,0.11,-0.02,-0.01,0.11
4.712,0.15,0.07,0.11,0.20
4.722,0.15,0.26,0.34,0.45
4.732,0.09,0.49,0.52,0.72
4.742,-0.06,0.64,0.45,0.78
4.752,-0.29,0.58,0.38,0.75
4.762,-0.42,0.35,0.16,0.57
4.772,-0.27,0.20,-0.41,0.53
4.782,0.05,0.17,-1.02,1.03
4.792,0.41,0.10,-1.23,1.30
4.802,0.72,-0.03,-0.88,1.14
4.813,0.83,-0.13,-0.18,0.86
4.823,0.71,-0.17,0.40,0.84
4.833,0.32,-0.11,0.62,0.70
4.843,-0.28,0.05,0.65,0.71
4.853,-0.86,0.13,0.61,1.06
4.863,-1.18,0.07,0.42,1.25
4.873,-1.15,-0.14,0.03,1.16
4.883,-0.68,-0.35,-0.36,0.84
4.893,-0.13,-0.45,-0.62,0.78
4.903,0.20,-0.44,-0.62,0.79
4.913,0.38,-0.32,-0.42,0.65
4.923,0.43,-0.12,-0.06,0.45
4.934,0.37,0.06,0.31,0.49
4.944,0.31,0.16,0.55,0.65
4.954,0.25,0.20,0.56,0.65
4.964,0.24,0.18,0.36,0.47
4.974,0.26,0.14,0.06,0.30
4.984,0.30,0.12,-0.18,0.36
4.994,0.31,0.11,-0.30,0.44
5.004,0.26,0.13,-0.29,0.41
5.014,0.19,0.13,-0.24,0.33
5.024,0.04,0.18,-0.12,0.21
5.034,-0.09,0.21,0.02,0.23
5.044,-0.17,0.15,0.11,0.25
5.054,-0.22,0.12,0.14,0.29
5.064,-0.21,0.08,0.11,0.25
5.074,-0.14,0.03,0.05,0.15
5.084,-0.10,-0.02,0.02,0.10
5.094,-0.10,-0.05,-0.02,0.11
5.105,-0.09,-0.08,-0.06,0.14
5.115,-0.11,-0.09,-0.07,0.15
5.125,-0.12,-0.09,-0.06,0.16
5.135,-0.13,-0.07,-0.06,0.16
5.145,-0.11,-0.05,-0.02,0.12
5.155,-0.10,-0.03,-0.01,0.10
5.165,-0.10,0.02,-0.02,0.10
5.175,-0.12,0.04,-0.03,0.13
5.185,-0.14,0.07,0.01,0.15
5.195,-0.13,0.10,0.02,0.17
5.205,-0.10,0.11,0.01,0.15
5.215,-0.07,0.11,-0.02,0.13
5.225,-0.01,0.08,-0.02,0.08
5.236,0.06,0.05,-0.03,0.08
5.245,0.10,0.01,-0.04,0.11
5.256,0.09,-0.02,-0.03,0.09
5.266,0.05,-0.04,-0.02,0.06
5.276,0.03,-0.04,0.02,0.05
5.286,0.04,-0.00,0.05,0.06
5.296,0.06,0.01,0.07,0.10
5.306,0.10,0.04,0.04,0.11
5.316,0.12,0.06,0.01,0.14
5.326,0.14,0.07,-0.04,0.16
5.336,0.13,0.04,-0.06,0.15
5.346,0.08,0.03,-0.06,0.11
5.356,0.03,0.01,-0.01,0.03
5.366,-0.00,-0.01,-0.00,0.02
5.376,-0.01,0.00,0.00,0.01
5.386,-0.01,0.02,0.00,0.02
5.397,0.01,0.05,-0.02,0.05
5.407,0.01,0.06,-0.04,0.07
5.417,0.01,0.06,-0.02,0.06
5.427,0.00,0.06,0.02,0.07
5.437,-0.00,0.07,0.05,0.09
5.447,-0.01,0.07,0.03,0.08
5.457,-0.00,0.04,-0.01,0.04
5.467,0.01,0.01,-0.02,0.03
5.477,-0.01,0.00,-0.01,0.01
5.487,-0.02,-0.01,-0.00,0.02
5.497,-0.03,0.00,0.01,0.03
5.507,-0.03,0.04,0.03,0.05
5.517,-0.01,0.07,0.02,0.08
5.527,-0.02,0.09,0.00,0.09
5.538,-0.03,0.07,-0.02,0.08
5.547,-0.05,0.06,-0.04,0.09
5.558,-0.06,0.03,-0.04,0.08
5.568,-0.05,0.01,-0.03,0.06
5.578,-0.04,0.01,-0.02,0.05
5.588,-0.04,-0.01,-0.02,0.04
5.598,-0.03,0.00,-0.02,0.03
5.608,0.00,0.03,-0.01,0.03
5.618,0.01,0.05,-0.01,0.05
5.628,-0.00,0.08,0.00,0.08
5.638,-0.01,0.08,0.01,0.08
5.648,0.01,0.06,0.00,0.06
5.658,0.02,0.05,0.01,0.05
5.668,0.03,0.03,0.01,0.05
5.678,0.04,0.00,0.01,0.04
5.688,0.02,0.01,0.00,0.02
5.699,0.04,0.01,-0.01,0.04
5.709,0.05,0.01,-0.01,0.05
5.719,0.08,-0.01,0.00,0.08
5.729,0.08,0.00,0.01,0.09
5.739,0.07,-0.01,0.01,0.07
5.749,0.07,0.01,0.02,0.08
5.759,0.05,0.00,0.02,0.05
5.769,0.02,0.04,0.01,0.05
5.779,0.01,0.03,-0.01,0.04
5.789,-0.00,0.03,-0.00,0.03
5.799,0.00,0.03,0.01,0.03
5.809,0.01,0.03,0.01,0.03
5.819,0.04,0.01,-0.00,0.04
5.829,0.03,0.01,-0.02,0.03
5.840,0.02,0.04,-0.01,0.05
5.850,0.03,0.05,0.00,0.06
5.860,0.02,0.06,-0.00,0.06
5.870,-0.02,0.06,-0.01,0.06
5.880,-0.02,0.05,-0.00,0.06
5.890,-0.02,0.05,-0.00,0.05
5.900,-0.01,0.03,0.01,0.04
5.910,-0.01,0.02,-0.00,0.02
5.920,-0.01,0.03,-0.01,0.03
5.930,-0.02,0.05,-0.00,0.06
5.940,-0.02,0.05,-0.02,0.05
5.950,-0.01,0.04,-0.00,0.04
5.960,-0.03,0.03,-0.01,0.04
5.970,-0.02,0.03,-0.01,0.04
5.981,-0.03,0.03,0.00,0.04
5.991,-0.01,0.03,-0.01,0.03
6.001,-0.00,0.01,-0.02,0.02
6.011,0.01,0.01,-0.01,0.01
6.021,0.00,-0.00,-0.01,0.01
6.031,0.01,-0.00,0.02,0.03
6.041,0.01,0.02,0.03,0.04
6.051,0.00,0.02,0.00,0.02
6.061,-0.02,0.03,0.00,0.04
6.071,-0.01,0.07,-0.02,0.07
6.081,-0.00,0.08,-0.02,0.08
6.091,-0.02,0.05,-0.01,0.06
6.101,-0.01,0.04,-0.02,0.05
6.111,0.01,0.03,-0.01,0.03
6.121,-0.01,0.03,0.00,0.03
6.131,0.01,0.02,0.03,0.04
6.142,0.02,0.00,0.02,0.02
6.152,0.04,-0.00,-0.00,0.04
6.162,0.05,-0.03,0.03,0.07
6.172,0.04,-0.01,0.01,0.04
6.182,0.03,0.01,-0.02,0.03
6.192,0.02,0.02,-0.02,0.03
6.202,0.02,0.03,-0.00,0.04
6.212,0.02,0.03,-0.00,0.04
6.222,0.01,0.03,0.03,0.04
6.232,0.00,0.05,0.01,0.05
6.242,-0.02,0.04,-0.01,0.05
6.252,-0.01,0.04,-0.02,0.05
6.262,0.01,0.06,-0.01,0.06
6.272,0.02,0.05,-0.02,0.06
6.283,-0.00,0.03,-0.02,0.04
6.293,0.02,0.03,-0.01,0.03
6.303,0.00,0.02,-0.00,0.02
6.313,-0.03,0.02,-0.02,0.04
6.323,-0.02,0.02,-0.01,0.03
6.333,-0.01,0.01,0.00,0.01
6.343,0.01,0.01,-0.01,0.02
6.353,-0.02,-0.02,0.02,0.03
6.363,-0.00,0.01,0.01,0.01
6.373,0.01,0.02,-0.00,0.02
6.383,0.00,0.03,-0.01,0.03
6.393,-0.00,0.01,0.00,0.01
6.403,0.01,0.01,0.01,0.02
6.413,-0.00,-0.01,-0.01,0.01
6.424,0.02,-0.01,-0.02,0.03
6.433,0.00,0.00,-0.01,0.01
6.444,-0.01,0.02,0.01,0.02
6.454,-0.00,0.03,0.00,0.03
6.464,0.02,0.04,-0.01,0.04
6.474,0.03,0.04,-0.01,0.05
6.484,0.01,0.06,-0.01,0.06
6.494,0.02,0.04,-0.00,0.05
6.504,-0.00,0.03,-0.01,0.03
6.514,0.01,0.01,-0.03,0.03
6.524,-0.00,-0.01,-0.01,0.02
6.534,-0.03,-0.01,-0.00,0.03
6.544,-0.02,-0.00,0.00,0.02
6.554,-0.01,-0.01,0.02,0.02
6.564,0.01,-0.00,0.01,0.01
6.575,0.00,0.01,-0.01,0.02
6.585,0.01,0.04,-0.02,0.04
6.595,-0.00,0.03,-0.00,0.03
6.605,0.01,0.02,-0.01,0.03
6.615,0.01,0.01,-0.00,0.01
6.625,-0.01,0.02,0.02,0.03
6.635,-0.02,0.01,0.01,0.03
6.645,-0.01,0.01,0.00,0.01
6.655,-0.00,0.02,-0.00,0.02
6.665,0.00,0.03,0.00,0.03
6.675,0.03,0.06,0.01,0.06
6.685,0.02,0.06,0.00,0.06
6.695,0.03,0.04,0.01,0.05
6.705,0.05,0.01,-0.00,0.05
6.715,0.10,-0.04,0.01,0.10
6.726,0.14,-0.08,-0.02,0.16
6.736,0.20,-0.09,-0.10,0.24
6.746,0.17,-0.10,-0.21,0.28
6.756,0.02,-0.08,-0.24,0.26
6.766,-0.14,-0.02,-0.13,0.19
6.776,-0.28,0.06,-0.00,0.29
6.786,-0.36,0.13,0.10,0.39
6.796,-0.35,0.12,0.05,0.37
6.806,-0.28,0.01,0.02,0.28
6.816,-0.18,-0.04,0.00,0.18
6.826,-0.19,-0.02,0.04,0.20
6.836,-0.26,0.03,0.04,0.27
6.846,-0.30,0.07,-0.02,0.31
6.856,-0.31,0.13,-0.11,0.36
6.867,-0.30,0.16,-0.18,0.38
6.877,-0.19,0.16,-0.19,0.31
6.887,-0.02,0.15,-0.07,0.17
6.897,0.14,0.14,0.11,0.23
6.907,0.28,0.14,0.29,0.42
6.917,0.24,0.10,0.30,0.40
6.927,0.10,0.03,0.23,0.25
6.937,-0.02,0.15,0.20,0.25
6.947,-0.10,0.30,0.15,0.35
6.957,-0.07,0.24,0.12,0.27
6.967,0.05,0.00,0.08,0.10
6.977,0.20,-0.21,-0.05,0.29
6.987,0.34,-0.27,-0.17,0.47
6.997,0.43,-0.22,-0.22,0.54
7.008,0.47,-0.17,-0.18,0.53
7.018,0.42,-0.09,-0.15,0.45
7.028,0.27,-0.01,-0.13,0.30
7.038,0.15,0.05,-0.10,0.19
7.048,0.04,0.11,-0.01,0.12
7.058,-0.02,0.11,0.08,0.14
7.068,-0.00,0.06,0.14,0.16
7.078,0.05,-0.03,0.12,0.13
7.088,0.13,-0.11,0.06,0.18
7.098,0.17,-0.18,-0.02,0.25
7.108,0.20,-0.19,-0.05,0.28
7.118,0.17,-0.17,-0.02,0.24
7.128,0.11,-0.14,0.03,0.18
7.138,0.04,-0.11,0.05,0.13
7.148,-0.02,-0.10,0.06,0.12
7.159,-0.07,-0.08,0.02,0.11
7.169,-0.13,-0.07,-0.04,0.16
7.179,-0.14,-0.04,-0.09,0.17
7.189,-0.10,-0.02,-0.11,0.15
7.199,-0.06,0.02,-0.10,0.11
7.209,-0.01,0.07,-0.06,0.09
7.219,0.03,0.13,0.01,0.13
7.229,0.03,0.16,0.04,0.17
7.239,-0.02,0.20,0.06,0.21
7.249,-0.08,0.21,0.10,0.25
7.259,-0.11,0.19,0.12,0.25
7.269,-0.11,0.16,0.11,0.23
7.279,-0.10,0.15,0.10,0.21
7.289,-0.05,0.11,0.12,0.17
7.299,-0.00,0.09,0.09,0.12
7.309,0.03,0.07,0.03,0.08
7.320,0.07,0.05,-0.02,0.09
7.330,0.08,0.07,-0.06,0.13
7.340,0.08,0.16,-0.06,0.19
7.350,0.09,0.19,-0.04,0.21
7.360,0.08,0.17,-0.02,0.19
7.370,0.04,0.09,-0.01,0.10
7.380,-0.02,0.04,-0.03,0.06
7.390,-0.06,-0.01,-0.05,0.07
7.400,-0.08,-0.03,-0.03,0.09
7.410,-0.10,-0.01,0.00,0.11
7.420,-0.12,0.02,0.01,0.13
7.430,-0.06,0.02,-0.05,0.08
7.440,0.03,0.01,-0.12,0.12
7.451,0.11,0.00,-0.14,0.18
7.461,0.14,-0.01,-0.13,0.19
7.471,0.16,-0.01,-0.09,0.18
7.481,0.13,-0.06,-0.07,0.16
7.491,0.10,-0.12,-0.02,0.15
7.501,0.01,-0.18,0.06,0.19
7.511,-0.05,-0.26,0.13,0.29
7.521,-0.08,-0.33,0.18,0.38
7.531,-0.13,-0.32,0.14,0.38
7.541,-0.12,-0.26,0.08,0.30
7.551,-0.08,-0.15,0.02,0.17
7.561,-0.07,-0.00,-0.03,0.08
7.571,-0.07,0.11,-0.08,0.15
7.581,-0.07,0.18,-0.12,0.22
7.591,-0.07,0.18,-0.09,0.21
7.601,-0.07,0.16,-0.05,0.18
7.612,-0.07,0.12,0.01,0.14
7.622,-0.07,0.09,0.06,0.13
7.632,-0.05,0.06,0.08,0.11
7.642,-0.04,0.01,0.06,0.07
7.652,0.02,-0.02,0.02,0.04
7.662,0.08,-0.03,-0.01,0.08
7.672,0.10,-0.03,-0.05,0.12
7.682,0.11,-0.02,-0.03,0.12
7.692,0.11,0.02,-0.00,0.11
7.702,0.12,0.05,0.02,0.14
7.712,0.15,0.11,0.05,0.20
7.722,0.16,0.16,0.05,0.23
7.732,0.14,0.16,0.04,0.22
7.742,0.12,0.14,0.03,0.19
7.752,0.08,0.08,0.03,0.12
7.762,0.01,0.08,0.04,0.09
7.772,-0.03,0.06,0.03,0.07
7.783,-0.07,0.05,0.03,0.10
7.793,-0.08,0.05,0.03,0.10
7.803,-0.04,0.04,-0.00,0.05
7.813,0.00,0.00,-0.03,0.03
7.823,0.01,-0.04,-0.04,0.06
7.833,-0.02,-0.06,-0.04,0.07
7.843,-0.08,-0.05,-0.04,0.10
7.853,-0.10,-0.02,-0.07,0.12
7.863,-0.05,0.01,-0.09,0.11
7.873,0.02,0.06,-0.10,0.12
7.883,0.11,0.08,-0.08,0.16
7.893,0.15,0.06,-0.04,0.17
7.903,0.15,0.03,0.00,0.15
7.914,0.09,0.00,0.05,0.10
7.924,0.04,-0.01,0.05,0.07
7.934,-0.02,0.03,0.05,0.06
7.944,-0.02,0.05,0.03,0.06
7.954,-0.04,0.02,0.02,0.05
7.964,-0.05,0.01,-0.00,0.05
7.974,-0.08,-0.04,0.02,0.09
7.984,-0.10,-0.05,-0.00,0.11
7.994,-0.13,-0.06,-0.01,0.15
8.004,-0.16,-0.10,-0.00,0.19
8.014,-0.15,-0.13,-0.02,0.19
8.024,-0.11,-0.15,-0.05,0.19
8.034,-0.05,-0.18,-0.10,0.21
8.044,-0.04,-0.18,-0.11,0.21
8.055,-0.03,-0.12,-0.06,0.14
8.065,-0.03,-0.06,-0.00,0.07
8.075,-0.02,-0.00,0.04,0.05
8.085,0.00,0.06,0.04,0.07
8.095,0.02,0.10,0.04,0.11
8.105,0.02,0.14,0.07,0.16
8.115,0.03,0.15,0.11,0.19
8.125,0.04,0.13,0.16,0.21
8.135,0.09,0.13,0.17,0.23
8.145,0.14,0.11,0.12,0.21
8.155,0.21,0.07,0.04,0.23
8.165,0.24,0.03,-0.04,0.25
8.175,0.28,0.01,-0.07,0.29
8.185,0.26,-0.01,-0.09,0.28
8.195,0.21,-0.00,-0.11,0.24
8.206,0.17,0.01,-0.09,0.19
8.216,0.10,0.02,-0.09,0.14
8.226,-0.01,0.04,-0.08,0.09
8.236,-0.08,-0.02,-0.10,0.13
8.246,-0.15,-0.05,-0.09,0.18
8.256,-0.17,-0.06,-0.04,0.18
8.266,-0.13,-0.06,0.01,0.14
8.276,-0.08,-0.04,0.05,0.10
8.286,-0.04,-0.02,0.07,0.08
8.296,-0.05,0.04,0.07,0.10
8.306,-0.07,0.08,0.08,0.13
8.316,-0.07,0.15,0.14,0.22
8.326,-0.05,0.19,0.16,0.26
8.336,0.02,0.18,0.12,0.21
8.346,0.12,0.13,0.05,0.18
8.357,0.19,0.04,-0.02,0.19
8.367,0.25,-0.08,-0.05,0.27
8.377,0.27,-0.17,-0.05,0.32
8.387,0.19,-0.23,-0.03,0.30
8.397,0.11,-0.25,-0.01,0.27
8.407,0.05,-0.20,0.05,0.21
8.417,-0.01,-0.13,0.11,0.17
8.427,-0.05,-0.05,0.08,0.11
8.437,-0.09,0.05,0.05,0.12
8.447,-0.10,0.11,-0.00,0.15
8.457,-0.12,0.15,-0.09,0.21
8.467,-0.12,0.16,-0.13,0.24
8.477,-0.13,0.16,-0.16,0.27
8.488,-0.17,0.13,-0.14,0.25
8.498,-0.22,0.11,-0.07,0.25
8.508,-0.26,0.10,-0.01,0.28
8.518,-0.27,0.07,0.02,0.28
8.528,-0.23,0.04,0.03,0.24
8.538,-0.17,0.05,0.04,0.18
8.548,-0.11,0.03,0.03,0.12
8.558,-0.03,0.04,0.01,0.05
8.568,0.01,0.03,-0.02,0.04
8.578,0.04,0.02,-0.06,0.07
8.588,0.07,0.00,-0.05,0.09
8.598,0.10,-0.01,-0.05,0.11
8.608,0.11,-0.03,-0.03,0.12
8.619,0.14,-0.03,0.01,0.14
8.629,0.15,-0.04,0.03,0.16
8.639,0.15,-0.08,0.03,0.17
8.649,0.14,-0.10,0.06,0.18
8.659,0.11,-0.10,0.08,0.17
8.669,0.08,-0.09,0.02,0.12
8.679,0.06,-0.05,0.01,0.08
8.689,0.06,-0.02,-0.01,0.06
8.699,0.06,0.02,-0.02,0.07
8.709,0.07,0.05,-0.02,0.08
8.719,0.04,0.06,-0.02,0.07
8.729,-0.00,0.06,-0.02,0.06
8.739,-0.01,0.04,-0.01,0.04
8.749,-0.04,0.03,-0.00,0.05
8.759,-0.08,0.01,0.01,0.08
8.769,-0.08,0.00,0.00,0.08
8.780,-0.10,0.01,0.01,0.10
8.790,-0.09,0.03,-0.02,0.10
8.800,-0.08,0.02,-0.04,0.09
8.810,-0.06,0.05,-0.05,0.09
8.820,-0.05,0.06,-0.05,0.09
8.830,-0.02,0.06,-0.05,0.08
8.840,-0.02,0.03,-0.03,0.05
8.850,-0.03,0.02,0.00,0.04
8.860,-0.01,0.01,0.02,0.03
8.870,-0.02,-0.00,0.04,0.04
8.880,-0.02,-0.01,0.02,0.03
8.890,0.01,-0.02,0.00,0.02
8.900,-0.00,0.00,0.01,0.01
8.911,0.01,0.01,-0.01,0.02
8.920,0.02,0.02,-0.03,0.04
8.930,0.03,0.01,0.00,0.04
8.941,0.04,0.01,0.01,0.04
8.951,0.01,0.03,0.02,0.03
8.961,-0.00,-0.01,0.02,0.02
8.971,-0.01,-0.04,0.02,0.04
8.981,-0.00,-0.04,0.01,0.04
8.991,0.00,-0.02,-0.00,0.02
9.001,-0.00,0.00,-0.01,0.01
9.011,0.01,-0.00,0.02,0.02
9.021,0.01,0.02,0.02,0.03
9.031,0.01,0.01,0.02,0.02
9.042,0.03,0.03,0.00,0.04
9.051,0.02,0.04,-0.02,0.05
9.061,0.02,0.02,-0.04,0.04
9.072,0.01,-0.00,-0.05,0.05
9.082,-0.01,-0.02,-0.02,0.03
9.092,0.01,0.01,0.02,0.02
9.102,0.03,0.00,0.04,0.05
9.112,0.05,0.03,0.04,0.07
9.122,0.05,0.04,0.01,0.06
9.132,0.03,0.04,-0.01,0.05
9.142,0.00,0.01,-0.01,0.02
9.152,-0.02,0.01,-0.01,0.03
9.162,-0.03,0.00,-0.01,0.04
9.172,-0.02,0.02,-0.01,0.03
9.182,0.00,0.01,0.01,0.01
9.192,0.01,0.01,0.01,0.02
9.202,-0.01,0.01,0.02,0.02
9.212,-0.01,0.00,0.01,0.02
9.222,-0.02,0.01,-0.00,0.02
9.233,-0.04,0.01,-0.02,0.04
9.243,-0.02,-0.00,-0.01,0.02
9.253,-0.01,0.01,-0.02,0.02
9.263,0.00,0.01,-0.00,0.01
9.273,-0.00,0.01,-0.00,0.01
9.283,0.01,0.00,-0.01,0.01
9.293,0.01,0.00,-0.02,0.02
9.303,0.01,-0.00,-0.02,0.03
9.313,0.01,0.00,0.01,0.01
9.323,-0.01,0.00,0.03,0.03
9.333,0.00,-0.01,0.00,0.01
9.343,0.02,0.01,0.00,0.02
9.353,0.04,0.01,0.02,0.05
9.363,0.05,0.00,0.01,0.05
9.374,0.02,0.01,-0.00,0.03
9.384,0.00,-0.00,-0.01,0.02
9.394,0.00,-0.02,-0.02,0.03
9.404,-0.01,0.01,-0.01,0.02
9.414,-0.02,0.00,0.00,0.02
9.424,-0.01,0.00,0.02,0.03
9.434,-0.01,0.04,0.02,0.04
9.444,-0.02,0.02,0.01,0.03
9.454,-0.03,0.02,-0.01,0.04
9.464,-0.02,0.02,0.00,0.02
9.474,-0.01,0.01,-0.04,0.04
9.484,0.00,0.01,-0.04,0.04
9.494,0.02,0.01,-0.02,0.03
9.504,0.02,0.02,0.00,0.02
9.514,0.02,0.03,0.01,0.03
9.525,0.02,-0.01,0.01,0.02
9.534,0.01,-0.00,0.02,0.02
9.545,0.02,0.01,0.02,0.04
9.555,-0.01,0.01,0.01,0.02
9.565,0.00,-0.01,-0.01,0.01
9.575,0.01,-0.00,-0.01,0.02
9.585,0.04,0.01,-0.00,0.04
9.595,0.05,0.01,0.00,0.05
9.605,0.03,0.00,-0.01,0.03
9.615,0.01,0.01,-0.02,0.02
9.625,0.03,0.01,-0.00,0.03
9.635,0.02,0.01,0.02,0.03
9.645,0.01,0.01,0.05,0.05
9.655,-0.03,0.00,0.04,0.05
9.665,-0.03,0.00,0.00,0.03
9.675,-0.02,0.01,-0.02,0.03
9.686,-0.02,0.02,-0.02,0.04
9.696,-0.02,0.03,-0.02,0.04
9.706,-0.01,0.01,-0.01,0.01
9.716,-0.01,0.01,-0.01,0.01
9.726,0.00,-0.01,0.02,0.02
9.736,0.00,-0.04,0.05,0.06
9.746,-0.01,-0.05,0.03,0.06
9.756,0.00,-0.05,0.01,0.05
9.766,-0.01,-0.04,-0.01,0.04
9.776,0.01,-0.02,-0.00,0.02
9.786,0.01,0.00,-0.01,0.01
9.796,0.00,0.04,0.01,0.04
9.806,0.01,0.06,0.00,0.06
9.816,0.02,0.06,-0.00,0.06
9.827,0.03,0.05,-0.03,0.06
9.837,0.02,0.05,-0.03,0.06
9.847,0.01,0.04,-0.03,0.05
9.857,-0.01,0.01,-0.02,0.03
9.867,0.02,0.01,-0.02,0.03
9.877,0.02,0.01,-0.00,0.02
9.887,0.04,0.00,0.02,0.04
9.897,0.03,-0.00,0.02,0.04
9.907,0.03,-0.01,0.02,0.04
9.917,0.04,-0.01,0.00,0.04
9.927,0.03,-0.01,0.00,0.04
9.937,0.02,-0.02,0.00,0.03
9.948,0.02,-0.02,-0.00,0.03
9.957,-0.00,0.00,-0.01,0.01
9.968,0.01,-0.00,0.01,0.01
9.978,0.01,0.00,0.01,0.01
9.988,-0.01,0.01,0.02,0.02
9.998,-0.03,0.00,0.01,0.04
10.008,-0.03,-0.01,0.01,0.03
10.018,-0.02,0.01,-0.01,0.02
10.028,-0.01,0.01,-0.02,0.02
10.038,0.01,-0.00,-0.03,0.03
10.048,0.02,0.01,-0.01,0.02
10.058,0.03,0.03,-0.00,0.04
10.068,0.03,0.04,0.00,0.05
10.078,0.03,0.05,0.01,0.06
10.088,0.03,0.03,0.01,0.04
10.098,0.04,0.01,0.01,0.04
10.109,0.03,0.00,0.01,0.03
10.119,-0.01,-0.01,-0.00,0.01
10.129,-0.00,-0.01,-0.00,0.01
10.139,0.00,-0.00,0.01,0.01
10.149,-0.02,0.00,0.02,0.02
10.159,-0.02,-0.00,0.01,0.03
10.169,-0.03,-0.00,-0.00,0.03
10.179,-0.02,0.01,-0.03,0.04
10.189,-0.03,0.03,-0.04,0.06
10.199,-0.04,0.01,-0.01,0.04
10.209,-0.01,-0.00,0.00,0.01
10.219,-0.01,-0.02,0.00,0.03
10.229,0.04,-0.03,0.02,0.06
10.239,0.08,-0.03,-0.01,0.08
10.250,0.13,-0.02,-0.01,0.13
10.260,0.14,-0.02,-0.00,0.14
10.270,0.15,0.01,-0.04,0.15
10.280,0.14,0.03,-0.03,0.14
10.290,0.08,0.02,-0.01,0.09
10.300,0.05,0.01,0.00,0.06
10.310,0.04,0.00,0.03,0.05
10.320,0.01,-0.00,0.05,0.05
10.330,-0.03,-0.02,0.08,0.08
10.340,-0.08,-0.04,0.04,0.10
10.350,-0.11,-0.05,0.01,0.12
10.360,-0.16,-0.02,-0.02,0.16
10.370,-0.13,-0.00,-0.04,0.14
10.381,-0.11,0.02,-0.06,0.13
10.391,-0.09,0.07,-0.06,0.13
10.401,-0.06,0.11,-0.04,0.13
10.411,-0.01,0.11,-0.01,0.11
10.421,-0.02,0.07,0.02,0.07
10.431,-0.04,0.00,0.03,0.05
10.441,-0.08,-0.02,0.03,0.09
10.451,-0.09,-0.03,-0.02,0.10
10.461,-0.07,-0.02,-0.05,0.09
10.471,-0.06,0.02,-0.10,0.12
10.481,-0.04,0.06,-0.08,0.10
10.491,-0.00,0.09,-0.03,0.09
10.501,0.03,0.09,0.01,0.09
10.511,0.02,0.05,0.07,0.09
10.521,0.04,0.02,0.10,0.11
10.531,0.02,-0.03,0.07,0.08
10.542,0.00,-0.06,0.08,0.10
10.552,0.02,-0.08,0.07,0.11
10.562,0.05,-0.07,0.05,0.09
10.572,0.04,-0.05,0.00,0.07
10.582,0.08,-0.01,-0.03,0.09
10.592,0.09,0.03,-0.06,0.11
10.602,0.11,0.05,-0.06,0.13
10.612,0.10,0.04,-0.05,0.12
10.622,0.07,0.05,-0.00,0.09
10.632,-0.01,0.04,0.03,0.05
10.642,-0.05,0.03,0.05,0.08
10.652,-0.07,0.00,0.03,0.08
10.662,-0.09,0.01,0.01,0.09
10.672,-0.07,0.03,0.02,0.07
10.682,-0.03,0.03,-0.00,0.04
10.693,0.01,0.04,-0.02,0.05
10.703,0.03,0.02,-0.04,0.06
10.713,0.04,0.00,-0.05,0.07
10.723,0.05,-0.01,-0.05,0.07
10.733,0.03,-0.01,-0.02,0.04
10.743,0.01,-0.03,0.03,0.04
10.753,0.01,-0.02,0.05,0.05
10.763,-0.01,-0.03,0.04,0.05
10.773,-0.01,-0.04,0.03,0.05
10.783,-0.00,-0.02,0.01,0.02
10.793,-0.01,-0.01,0.01,0.01
10.803,0.01,-0.00,-0.00,0.01
10.813,0.01,0.01,-0.01,0.02
10.823,0.03,0.02,-0.02,0.04
10.833,0.03,0.02,-0.03,0.05
10.843,0.04,0.02,-0.03,0.06
10.854,0.03,0.03,-0.02,0.05
10.864,0.01,0.02,-0.01,0.02
10.874,-0.01,0.02,0.03,0.03
10.884,-0.01,-0.00,0.04,0.04
10.894,-0.02,-0.00,0.05,0.05
10.904,-0.00,0.02,0.02,0.03
10.914,0.00,0.02,0.00,0.02
10.924,0.01,0.04,-0.02,0.04
10.934,0.00,0.01,-0.04,0.04
10.944,0.00,0.01,-0.04,0.04
10.954,0.01,0.01,-0.00,0.02
10.964,-0.02,0.01,0.03,0.03
10.975,-0.00,0.00,0.03,0.03
10.984,-0.00,-0.02,0.01,0.03
10.995,0.00,-0.00,-0.01,0.01
11.005,0.02,-0.01,-0.00,0.02
11.015,-0.00,-0.00,-0.01,0.01
11.025,-0.02,0.02,0.01,0.03
11.035,-0.00,0.02,0.02,0.03
11.045,-0.01,0.02,0.01,0.02
11.055,-0.00,0.01,-0.01,0.02
11.065,-0.01,-0.01,-0.00,0.01
11.075,-0.01,-0.01,0.00,0.01
11.085,-0.00,-0.01,0.01,0.01
11.095,-0.01,-0.01,0.00,0.02
11.105,0.00,-0.02,-0.02,0.03
11.115,0.02,-0.01,0.01,0.02
11.125,0.04,0.01,0.01,0.05
11.135,0.03,0.00,0.02,0.04
11.146,0.02,0.02,0.01,0.03
11.156,0.02,0.02,0.00,0.03
11.166,0.01,0.01,-0.00,0.02
11.176,-0.01,-0.03,0.00,0.03
11.186,-0.02,-0.02,0.01,0.03
11.196,-0.03,-0.03,-0.00,0.04
11.206,-0.03,-0.00,-0.03,0.05
11.216,-0.03,0.04,-0.05,0.06
11.226,-0.01,0.04,-0.05,0.07
11.236,0.01,0.04,-0.03,0.06
11.246,0.03,0.06,-0.00,0.06
11.256,0.03,0.02,0.01,0.04
11.267,0.00,-0.02,0.02,0.03
11.277,0.00,-0.05,0.04,0.06
11.287,-0.01,-0.06,0.04,0.07
11.297,-0.02,-0.05,0.02,0.06
11.307,-0.02,-0.04,-0.00,0.05
11.317,-0.01,-0.02,0.02,0.03
11.327,0.00,0.02,0.01,0.02
11.337,0.02,0.05,-0.00,0.05
11.347,0.04,0.05,-0.00,0.06
11.357,0.04,0.05,-0.02,0.07
11.367,0.02,0.03,-0.02,0.05
11.377,0.03,0.02,-0.03,0.05
11.387,0.03,0.01,-0.01,0.04
11.397,0.00,-0.00,-0.01,0.01
11.407,0.00,0.02,0.01,0.02
11.418,-0.00,-0.00,0.03,0.03
11.428,-0.01,0.01,0.03,0.03
11.438,-0.00,0.02,0.01,0.02
11.448,-0.01,0.02,-0.01,0.02
11.458,0.01,0.00,-0.01,0.02
11.468,-0.00,0.01,-0.01,0.02
11.478,-0.01,-0.01,-0.01,0.02
11.488,-0.01,-0.02,0.00,0.02
11.498,0.01,-0.02,-0.01,0.03
11.508,-0.01,-0.02,-0.01,0.03
11.518,0.00,-0.02,-0.01,0.03
11.528,0.01,-0.01,0.00,0.01
11.538,0.02,0.00,0.02,0.03
11.548,0.02,-0.01,0.02,0.03
11.558,0.01,0.01,0.01,0.01
11.569,-0.00,0.00,-0.01,0.01
11.579,0.01,0.01,-0.02,0.02
11.589,-0.01,0.04,0.01,0.04
11.599,0.00,0.03,0.00,0.03
11.609,-0.01,0.02,-0.03,0.04
11.619,-0.00,0.02,-0.01,0.03
11.629,0.01,0.01,0.00,0.01
11.639,0.02,0.01,0.00,0.02
11.649,0.01,0.01,0.00,0.02
11.659,0.00,-0.02,-0.02,0.03
11.669,0.02,-0.00,-0.01,0.03
11.679,0.01,0.00,-0.01,0.01
11.689,0.01,0.00,-0.01,0.02
11.699,0.03,-0.00,0.00,0.03
11.709,0.02,0.01,0.01,0.03
11.720,0.02,0.01,-0.00,0.02
11.730,0.02,0.00,-0.00,0.02
11.740,0.01,0.01,0.00,0.02
11.750,0.03,0.00,-0.00,0.03
11.760,0.01,-0.00,0.02,0.02
11.770,0.01,0.00,0.00,0.01
11.780,-0.01,-0.00,-0.00,0.01
11.790,-0.03,-0.01,0.01,0.03
11.800,-0.01,-0.00,0.01,0.02
11.810,-0.01,0.01,-0.00,0.02
11.820,-0.01,0.01,0.00,0.01
11.830,0.02,0.02,0.01,0.03
11.840,0.01,0.01,0.01,0.02
11.850,0.01,0.00,-0.01,0.01
11.861,0.00,-0.01,-0.01,0.02
11.870,0.00,-0.00,-0.00,0.00
11.881,0.01,-0.00,0.00,0.01
11.891,0.01,-0.01,0.01,0.02
11.901,0.02,-0.01,0.01,0.03
11.911,-0.00,0.01,0.01,0.01
11.921,0.01,-0.00,-0.02,0.02
11.931,-0.01,0.01,-0.01,0.02
11.941,0.01,-0.00,0.00,0.01
11.951,0.01,-0.01,0.00,0.02
11.961,0.00,0.02,-0.01,0.02
11.971,-0.00,0.03,-0.04,0.05
11.981,0.01,0.03,-0.04,0.05
11.991,0.01,0.02,-0.04,0.04
12.001,0.01,-0.00,-0.00,0.01
12.011,-0.00,0.00,0.03,0.03
12.022,0.01,0.00,0.01,0.01
12.032,-0.02,-0.02,0.01,0.03
12.042,-0.01,-0.03,0.00,0.03
12.052,-0.01,-0.02,-0.00,0.02
12.062,-0.01,-0.01,-0.01,0.01
12.072,0.02,0.00,-0.01,0.02
12.082,0.03,0.02,0.00,0.04
12.092,0.02,0.03,0.00,0.04
12.102,0.01,0.03,0.02,0.04
12.112,0.03,0.05,0.02,0.06
12.122,0.02,0.05,0.00,0.05
12.132,0.00,0.03,-0.01,0.03
12.142,0.00,0.01,-0.01,0.01
12.152,-0.00,0.02,-0.02,0.03
12.162,0.01,0.01,-0.03,0.03
12.173,-0.01,0.01,-0.02,0.02
12.183,-0.01,0.02,0.00,0.02
12.193,0.00,-0.00,0.02,0.02
12.203,-0.02,0.00,0.01,0.02
12.213,-0.00,-0.00,0.00,0.01
12.223,0.00,0.00,-0.01,0.01
12.233,-0.00,-0.00,-0.01,0.01
12.243,-0.00,-0.00,-0.01,0.01
12.253,-0.00,-0.01,0.01,0.02
12.263,0.00,-0.02,0.03,0.04
12.273,-0.01,-0.02,0.02,0.02
12.283,-0.01,-0.01,0.01,0.02
12.293,-0.02,0.00,-0.01,0.02
12.303,-0.01,-0.00,-0.00,0.01
12.314,0.00,-0.00,0.02,0.02
12.324,0.01,-0.00,0.02,0.02
12.334,0.01,0.01,0.01,0.02
12.344,0.00,0.02,0.01,0.02
12.354,0.03,0.01,-0.01,0.03
12.364,0.02,0.01,-0.01,0.02
12.374,-0.01,0.00,-0.01,0.01
12.384,-0.01,-0.01,-0.01,0.01
12.394,-0.01,-0.01,-0.03,0.03
12.404,0.01,-0.00,-0.02,0.02
12.414,0.02,0.01,0.01,0.03
12.424,0.02,0.03,0.02,0.04
12.434,-0.00,0.01,0.02,0.02
12.444,-0.00,-0.00,-0.01,0.01
12.454,0.01,-0.01,-0.01,0.02
12.465,0.01,-0.01,0.01,0.02
12.475,0.01,0.00,-0.00,0.01
12.485,0.00,0.01,-0.00,0.01
12.495,0.02,0.01,-0.01,0.03
12.505,0.01,0.00,-0.00,0.01
12.515,0.01,0.02,0.02,0.03
12.525,-0.00,0.00,0.02,0.02
12.535,-0.00,0.01,0.01,0.02
12.545,-0.01,-0.00,0.00,0.01
12.555,-0.01,0.02,0.01,0.02
12.565,-0.01,0.01,-0.00,0.02
12.575,-0.00,0.01,-0.00,0.01
12.585,0.00,0.00,-0.01,0.01
12.595,-0.02,-0.01,-0.02,0.03
12.605,-0.00,-0.01,-0.01,0.01
12.616,0.01,0.00,-0.01,0.01
12.626,0.01,-0.01,-0.00,0.01
12.636,0.02,-0.01,-0.00,0.02
12.646,0.01,-0.00,-0.00,0.01
12.656,0.01,0.00,0.02,0.02
12.666,0.01,0.00,0.02,0.03
12.676,0.02,-0.00,0.02,0.03
12.686,0.00,-0.01,0.01,0.01
12.696,-0.00,-0.01,0.00,0.01
12.706,-0.01,0.02,-0.02,0.03
12.716,-0.02,-0.00,-0.04,0.05
12.726,-0.03,-0.00,-0.04,0.05
12.736,-0.02,-0.02,-0.02,0.04
12.747,-0.01,-0.00,-0.00,0.01
12.757,-0.01,0.00,0.01,0.02
12.767,-0.00,-0.00,0.00,0.01
12.777,0.03,-0.01,0.02,0.04
12.787,0.00,-0.01,0.02,0.02
12.797,-0.01,-0.01,0.00,0.02
12.807,0.01,0.00,0.03,0.03
12.817,0.00,0.02,0.04,0.04
12.827,0.02,0.03,0.02,0.04
12.837,0.00,0.04,0.00,0.05
12.847,0.01,0.04,-0.01,0.04
12.857,0.02,0.04,-0.04,0.05
12.867,0.01,0.02,-0.03,0.04
12.877,0.02,0.01,-0.04,0.05
12.887,0.02,0.01,-0.02,0.03
12.898,0.03,0.03,-0.01,0.04
12.908,0.02,0.01,0.01,0.02
12.918,0.00,0.00,0.02,0.02
12.928,-0.01,-0.01,0.02,0.02
12.938,0.00,-0.01,0.02,0.02
12.948,-0.00,0.00,-0.01,0.01
12.958,0.00,0.01,-0.02,0.02
12.968,0.01,0.01,-0.01,0.02
12.978,-0.01,-0.00,-0.00,0.01
12.988,0.00,0.00,0.02,0.02
12.998,0.00,-0.02,0.02,0.03
13.008,-0.03,-0.02,-0.02,0.04
13.018,-0.02,-0.02,-0.01,0.03
13.028,0.01,-0.01,-0.02,0.02
13.038,0.01,0.00,-0.01,0.01
13.049,0.02,0.03,-0.01,0.04
13.059,0.03,0.03,0.02,0.05
13.069,0.02,0.01,0.02,0.03
13.079,0.01,-0.01,0.00,0.01
13.089,0.02,-0.00,-0.02,0.03
13.099,0.02,0.02,-0.03,0.04
13.109,0.01,0.02,-0.01,0.02
13.119,-0.00,0.01,0.00,0.01
13.129,-0.01,0.01,0.01,0.01
13.139,0.00,-0.00,0.00,0.00
13.149,0.00,0.02,0.01,0.02
13.159,0.01,0.02,0.01,0.02
13.169,0.00,0.01,0.01,0.01
13.179,0.01,0.01,-0.00,0.01
13.189,0.00,-0.01,-0.01,0.01
13.200,-0.00,-0.01,-0.00,0.01
13.210,0.02,0.00,-0.01,0.02
13.220,0.00,-0.01,0.01,0.01
13.230,0.00,-0.01,0.02,0.02
13.240,-0.01,0.00,-0.02,0.02
13.250,-0.00,0.01,-0.02,0.02
13.260,-0.02,0.01,0.01,0.02
13.270,-0.01,0.01,-0.00,0.01
13.280,-0.01,0.02,-0.00,0.02
13.290,0.00,0.01,0.01,0.02
13.300,0.00,0.01,0.00,0.01
13.310,-0.01,-0.01,-0.00,0.02
13.320,-0.00,0.00,-0.01,0.01
13.330,0.01,0.01,-0.00,0.01
13.341,0.01,0.01,0.01,0.02
13.351,0.02,0.01,-0.01,0.02
13.361,0.02,0.01,-0.01,0.02
13.371,0.01,0.01,0.00,0.01
13.381,0.01,0.01,0.00,0.01
13.391,-0.00,0.01,-0.01,0.01
13.399,-0.00,0.00,0.01,0.01
13.408,-0.02,0.01,0.02,0.03
13.419,-0.01,-0.01,0.03,0.03
13.428,0.01,-0.02,-0.00,0.02
13.438,0.00,-0.00,-0.01,0.01
13.449,0.01,0.01,-0.04,0.05
13.459,-0.01,0.02,-0.05,0.05
13.469,-0.01,0.01,-0.03,0.03
13.479,-0.00,0.02,-0.00,0.02
13.489,-0.00,0.02,0.02,0.03
13.499,0.00,0.02,0.04,0.04
13.509,-0.01,0.00,0.02,0.02
13.520,-0.01,-0.03,0.02,0.04
13.529,-0.01,-0.04,0.03,0.05
13.539,-0.01,-0.03,0.01,0.03
13.549,0.01,-0.00,0.00,0.01
13.560,0.03,0.02,0.00,0.04
13.570,0.04,0.03,-0.01,0.05
13.580,0.01,0.05,0.01,0.06
13.590,0.02,0.03,0.02,0.04
13.600,0.02,0.01,-0.03,0.04
13.610,-0.01,0.01,-0.05,0.05
13.620,0.00,0.01,-0.03,0.03
13.630,0.00,-0.00,0.00,0.01
13.640,0.00,0.00,0.02,0.02
13.650,-0.00,0.03,0.01,0.03
13.660,-0.00,0.02,-0.01,0.02
13.670,0.02,0.01,-0.01,0.02
13.680,0.00,-0.01,-0.00,0.01
13.690,0.01,-0.00,0.00,0.01
13.700,-0.00,0.00,0.01,0.01
13.710,-0.02,0.01,0.02,0.03
13.721,0.00,-0.02,0.01,0.02
13.731,-0.01,-0.03,0.01,0.03
13.741,-0.00,-0.03,-0.00,0.03
13.751,-0.01,-0.02,-0.01,0.02
13.765,-0.01,0.00,-0.01,0.02
13.775,-0.01,-0.00,-0.02,0.02
13.785,0.02,0.01,-0.02,0.03
13.795,0.02,0.03,-0.00,0.03
13.805,0.02,0.03,0.02,0.04
13.815,0.02,0.02,0.02,0.04
13.825,0.00,0.01,0.01,0.02
13.835,-0.01,0.01,0.01,0.02
13.845,-0.01,0.01,-0.01,0.01
13.855,-0.00,0.01,-0.03,0.03
13.865,0.00,0.01,-0.01,0.02
13.875,0.02,0.01,0.00,0.02
13.886,0.01,0.01,-0.01,0.02
13.896,-0.01,0.01,-0.02,0.03
13.906,0.00,0.01,-0.02,0.02
13.916,0.01,0.01,0.02,0.02
13.926,0.00,0.01,0.01,0.02
13.936,-0.01,-0.01,-0.00,0.01
13.946,0.01,-0.00,0.01,0.01
13.956,0.01,-0.01,0.01,0.02
13.966,0.01,-0.00,-0.01,0.01
13.976,-0.01,0.00,0.00,0.01
13.986,-0.01,-0.01,0.00,0.01
13.996,-0.02,0.01,-0.01,0.02
14.006,-0.03,0.01,-0.00,0.03
14.016,-0.03,0.00,0.01,0.03
14.026,-0.01,0.01,-0.01,0.02
14.036,-0.01,0.02,0.01,0.03
14.047,0.01,0.04,-0.01,0.04
14.057,0.01,0.01,0.00,0.02
14.067,0.03,-0.01,-0.00,0.03
14.077,0.02,0.01,-0.02,0.03
14.087,0.01,0.01,-0.01,0.02
14.097,0.01,-0.00,-0.00,0.01
14.107,0.01,-0.01,0.01,0.02
14.117,0.02,-0.01,0.01,0.02
14.127,0.00,-0.01,-0.01,0.01
14.137,0.01,0.00,-0.01,0.01
14.147,-0.00,0.00,0.01,0.01
14.157,-0.01,0.01,0.01,0.01
14.167,-0.02,0.00,0.02,0.03
14.177,0.01,-0.00,0.00,0.01
14.188,0.00,-0.01,-0.02,0.02
14.198,0.01,-0.00,-0.04,0.04
14.208,0.02,0.02,-0.05,0.06
14.218,0.02,0.01,-0.03,0.04
14.228,0.01,-0.00,-0.01,0.01
14.238,0.00,-0.00,-0.00,0.00
14.248,0.00,-0.00,0.03,0.03
14.258,0.01,0.01,0.01,0.02
14.268,-0.01,0.00,0.00,0.01
14.278,0.01,-0.02,0.00,0.02
14.288,0.01,-0.03,0.01,0.03
14.298,-0.02,-0.01,0.01,0.03
14.308,-0.02,0.00,0.04,0.04
14.319,0.02,0.03,0.04,0.05
14.328,0.02,0.04,0.03,0.06
14.339,0.01,0.04,0.03,0.05
14.349,0.00,0.04,-0.01,0.04
14.359,0.02,0.01,-0.04,0.04
14.369,-0.00,0.01,-0.04,0.04
14.379,0.01,0.01,-0.02,0.03
14.389,0.00,0.02,-0.03,0.03
14.399,0.01,0.02,-0.00,0.02
14.409,-0.00,0.04,0.02,0.05
14.419,-0.01,0.02,0.01,0.03
14.429,-0.03,0.02,0.01,0.03
14.439,-0.02,-0.01,-0.01,0.03
14.449,-0.01,-0.02,-0.02,0.03
14.459,-0.01,-0.02,-0.01,0.02
14.469,-0.01,-0.01,-0.00,0.01
14.479,-0.01,-0.02,0.00,0.02
14.490,-0.01,-0.01,-0.00,0.01
14.500,-0.02,-0.02,-0.01,0.03
14.510,-0.02,-0.03,-0.01,0.04
14.520,-0.00,-0.02,0.01,0.02
14.530,-0.00,-0.01,0.01,0.02
14.540,0.02,0.00,-0.01,0.02
14.550,0.02,0.02,-0.01,0.04
14.560,0.03,0.02,0.00,0.04
14.570,0.01,0.02,0.02,0.03
14.580,0.01,0.01,0.01,0.02
14.590,-0.00,0.00,-0.00,0.00
14.600,-0.00,0.01,-0.01,0.01
14.610,0.01,-0.00,-0.02,0.02
14.621,0.01,0.01,-0.01,0.02
14.631,0.01,0.03,-0.02,0.04
14.641,0.01,0.02,-0.01,0.02
14.651,0.01,0.01,0.00,0.01
14.661,0.00,0.01,-0.00,0.01
14.671,-0.01,0.01,0.01,0.02
14.681,0.01,0.01,0.02,0.02
14.691,-0.00,-0.00,0.01,0.01
14.701,0.01,-0.01,0.00,0.02
14.711,0.02,-0.01,0.02,0.03
14.721,0.03,-0.01,0.02,0.03
14.731,0.03,-0.00,0.01,0.04
14.741,0.04,-0.01,-0.01,0.05
14.751,0.03,-0.03,0.00,0.04
14.762,0.02,-0.01,-0.01,0.02
14.772,0.02,-0.02,-0.00,0.02
14.782,-0.01,0.00,-0.00,0.01
14.792,-0.01,0.02,-0.02,0.03
14.802,-0.02,0.02,-0.00,0.03
14.812,-0.02,0.01,0.00,0.03
14.822,-0.04,0.02,-0.02,0.05
14.832,-0.03,0.02,-0.00,0.04
14.842,-0.05,0.02,-0.00,0.05
14.852,-0.03,0.02,-0.01,0.04
14.862,-0.02,0.01,-0.01,0.03
14.872,-0.01,0.01,-0.01,0.02
14.882,0.01,0.01,-0.02,0.02
14.892,0.01,-0.00,-0.02,0.03
14.902,0.01,-0.01,-0.01,0.01
14.912,0.00,0.01,-0.01,0.02
14.923,0.02,0.01,-0.00,0.02
14.933,0.01,0.01,0.01,0.01
14.943,-0.00,0.01,0.02,0.03
14.953,0.00,-0.00,0.03,0.03
14.963,-0.00,-0.02,0.02,0.03
14.973,-0.02,-0.00,-0.02,0.03
14.983,-0.00,0.01,-0.04,0.04
14.993,0.01,0.02,-0.04,0.05
15.003,0.01,0.01,-0.02,0.03
15.013,0.01,0.01,-0.03,0.03
15.023,0.03,-0.01,0.00,0.03
15.033,0.03,0.02,0.01,0.03
15.043,0.02,0.02,0.01,0.03
15.053,0.01,-0.01,0.03,0.03
15.063,0.01,-0.03,0.04,0.05
15.073,-0.00,-0.03,0.02,0.04
15.084,-0.02,-0.01,0.03,0.03
15.094,0.02,-0.00,0.04,0.04
15.104,0.02,0.02,0.03,0.04
15.114,-0.01,0.03,-0.02,0.03
15.124,0.02,0.04,-0.01,0.04
15.134,0.01,0.03,-0.01,0.03
15.144,0.01,0.03,-0.03,0.04
15.154,0.00,0.03,-0.03,0.04
15.164,0.01,0.03,-0.04,0.05
15.174,-0.01,0.02,-0.02,0.03
15.184,-0.01,0.02,0.02,0.03
15.194,0.01,0.03,0.03,0.04
15.204,-0.01,0.01,0.00,0.02
15.215,-0.02,0.00,-0.01,0.02
15.224,-0.01,0.00,-0.01,0.02
15.235,-0.00,0.01,-0.02,0.02
15.245,-0.00,-0.00,-0.01,0.01
15.255,-0.00,-0.00,0.01,0.01
15.265,-0.00,-0.01,0.02,0.02
15.275,-0.01,-0.01,-0.00,0.01
15.285,-0.01,-0.02,-0.00,0.02
15.295,-0.00,-0.02,-0.01,0.02
15.305,-0.00,-0.01,-0.02,0.02
15.315,-0.01,-0.00,-0.00,0.01
15.325,0.03,0.01,-0.01,0.03
15.335,0.02,0.03,0.01,0.03
15.345,0.00,0.02,0.00,0.02
15.355,0.02,0.01,0.01,0.03
15.365,-0.01,0.02,0.02,0.03
15.376,0.00,0.01,0.01,0.01
15.386,0.01,-0.00,-0.01,0.02
15.396,-0.01,0.00,-0.02,0.03
15.406,-0.01,0.00,-0.03,0.03
15.416,0.02,-0.00,-0.01,0.02
15.426,0.02,0.01,0.00,0.02
15.436,0.03,0.00,0.01,0.03
15.446,0.02,-0.02,0.02,0.03
15.456,0.02,0.01,0.01,0.03
15.466,0.00,-0.00,0.02,0.02
15.476,0.02,-0.02,-0.00,0.03
15.486,0.02,-0.01,-0.00,0.02
15.496,0.01,-0.00,-0.01,0.01
15.506,-0.00,0.01,-0.01,0.01
15.517,-0.00,-0.01,0.00,0.01
15.527,-0.01,0.01,-0.02,0.03
15.537,-0.02,0.01,-0.01,0.02
15.547,-0.02,0.01,0.01,0.02
15.557,-0.02,0.02,0.01,0.03
15.567,-0.01,0.01,0.01,0.02
15.577,0.00,0.02,0.01,0.03
15.587,-0.00,0.02,-0.00,0.02
15.597,-0.01,0.01,-0.02,0.02
15.607,-0.00,0.02,-0.01,0.03
15.617,-0.00,0.02,-0.01,0.02
15.627,0.01,0.02,-0.00,0.02
15.637,0.01,0.02,0.01,0.03
15.647,0.01,0.01,-0.01,0.02
15.658,0.01,0.00,0.00,0.02
15.668,0.01,-0.01,-0.00,0.01
15.678,0.01,-0.01,0.00,0.01
15.688,0.02,0.00,0.00,0.02
15.698,0.02,0.01,0.01,0.03
15.708,0.02,0.01,0.00,0.03
15.718,0.03,0.02,0.00,0.04
15.728,0.02,0.00,0.01,0.02
15.738,0.01,0.01,-0.00,0.01
15.748,0.02,0.01,0.02,0.03
15.758,0.01,-0.01,0.00,0.02
15.768,0.00,-0.00,-0.01,0.01
15.778,-0.00,-0.02,-0.03,0.03
15.788,-0.02,0.00,-0.02,0.03
15.799,-0.02,0.01,-0.03,0.03
15.809,-0.00,0.01,-0.04,0.04
15.819,0.00,0.01,-0.01,0.02
15.829,-0.00,0.02,-0.00,0.02
15.839,0.00,0.01,-0.01,0.01
15.849,-0.00,-0.01,0.02,0.03
15.859,-0.00,-0.03,0.04,0.04
15.869,-0.01,-0.02,0.03,0.03
15.879,-0.02,-0.01,0.03,0.03
15.889,-0.01,0.01,0.02,0.02
15.899,0.01,0.03,-0.00,0.04
15.909,0.01,0.03,-0.01,0.04
15.919,0.01,0.04,-0.02,0.05
15.929,0.03,0.03,-0.02,0.05
15.939,0.03,0.03,-0.03,0.05
15.949,0.02,0.02,-0.04,0.04
15.960,0.01,0.00,-0.02,0.02
15.970,-0.01,0.01,-0.00,0.01
15.980,-0.01,0.01,-0.00,0.02
15.990,0.00,0.02,0.01,0.02
16.000,-0.01,0.02,0.01,0.02
16.010,0.00,0.01,-0.01,0.02
16.020,-0.01,0.00,-0.01,0.02
16.030,-0.00,-0.01,-0.01,0.01
16.040,0.00,0.01,0.00,0.01
16.050,-0.01,-0.01,-0.01,0.02
16.060,-0.01,-0.01,-0.01,0.02
16.070,-0.02,-0.03,0.01,0.03
16.080,-0.01,-0.03,-0.00,0.03
16.091,-0.02,-0.02,0.00,0.03
16.101,-0.02,-0.02,0.01,0.03
16.111,-0.00,0.00,-0.00,0.00
16.121,0.01,0.01,0.00,0.01
16.131,0.03,0.01,0.02,0.04
16.141,0.02,0.00,0.03,0.04
16.151,0.01,0.00,0.01,0.02
16.161,0.01,0.01,0.01,0.02
16.171,0.01,0.00,0.00,0.01
16.181,0.01,0.01,-0.01,0.01
16.191,-0.00,0.01,-0.01,0.01
16.201,0.00,0.02,-0.02,0.03
16.211,-0.00,0.01,-0.02,0.02
16.222,-0.01,0.02,-0.01,0.03
16.231,0.00,0.01,-0.00,0.01
16.242,0.02,0.01,0.01,0.03
16.252,0.02,0.00,0.01,0.02
16.262,0.01,-0.02,-0.00,0.02
16.272,0.00,0.00,0.01,0.01
16.282,0.01,-0.00,-0.01,0.01
16.292,0.02,-0.01,-0.00,0.02
16.302,0.03,-0.00,-0.01,0.03
16.312,0.01,-0.01,-0.02,0.02
16.322,0.01,0.00,-0.02,0.02
16.332,-0.01,0.01,-0.01,0.02
16.342,-0.02,0.01,-0.00,0.02
16.352,0.01,0.01,0.00,0.01
16.362,-0.00,0.01,0.01,0.01
16.372,-0.02,0.01,-0.00,0.02
16.382,-0.01,0.02,0.01,0.03
16.392,-0.00,0.02,0.02,0.03
16.402,0.01,0.02,-0.01,0.03
16.413,-0.01,0.00,-0.01,0.01
16.423,-0.00,-0.01,0.00,0.01
16.433,-0.01,0.00,0.01,0.01
16.443,-0.01,0.01,-0.00,0.02
16.453,0.02,0.01,-0.01,0.03
16.463,0.03,0.01,-0.02,0.03
16.473,0.01,0.03,-0.01,0.03
16.483,0.02,0.01,-0.01,0.02
16.493,-0.01,0.04,0.01,0.04
16.503,0.02,0.03,0.01,0.03
16.513,0.01,0.02,0.02,0.03
16.523,0.01,0.02,0.02,0.03
16.533,0.01,0.01,0.02,0.02
16.544,0.00,-0.00,0.01,0.01
16.554,-0.01,0.01,-0.00,0.02
16.564,-0.02,0.01,-0.06,0.06
16.574,-0.00,0.01,-0.06,0.06
16.584,-0.02,0.01,-0.05,0.06
16.594,-0.01,0.01,-0.03,0.03
16.604,0.01,0.02,0.00,0.02
16.614,-0.01,-0.00,0.04,0.04
16.624,-0.00,0.00,0.01,0.01
16.634,0.03,-0.01,0.01,0.03
16.644,0.03,-0.02,0.02,0.04
16.654,0.01,-0.04,0.01,0.04
16.664,-0.01,-0.03,0.01,0.03
16.674,-0.00,0.01,0.03,0.03
16.684,-0.01,0.02,0.03,0.04
16.694,0.02,0.05,0.01,0.05
16.705,-0.01,0.05,-0.01,0.05
16.715,0.00,0.04,-0.01,0.05
16.725,0.01,0.02,-0.03,0.04
16.735,0.00,0.01,-0.03,0.03
16.745,-0.01,-0.01,-0.04,0.04
16.755,0.00,-0.00,-0.04,0.04
16.765,-0.01,-0.00,0.00,0.01
16.775,-0.01,0.01,0.01,0.01
16.785,0.00,0.01,0.03,0.03
16.795,-0.01,0.02,0.02,0.03
16.805,0.00,0.00,0.00,0.00
16.815,0.02,0.01,-0.01,0.02
16.825,0.01,0.02,-0.01,0.02
16.836,-0.00,-0.00,-0.01,0.01
16.846,0.01,-0.01,-0.01,0.02
16.856,-0.01,-0.02,-0.02,0.03
16.866,-0.02,-0.00,-0.02,0.03
16.876,-0.01,-0.00,0.00,0.01
16.886,-0.02,-0.01,-0.00,0.02
16.896,-0.00,-0.00,0.00,0.01
16.906,0.00,0.01,0.02,0.03
16.916,0.02,0.02,0.02,0.03
16.926,0.02,0.01,0.03,0.04
16.936,0.00,0.01,0.01,0.01
16.946,0.00,0.01,-0.00,0.01
16.956,-0.01,-0.00,0.01,0.01
16.966,0.00,0.01,-0.00,0.01
16.977,-0.00,0.02,-0.03,0.03
16.987,0.00,0.02,-0.02,0.03
16.997,0.00,0.01,-0.02,0.02
17.007,-0.01,0.02,-0.01,0.03
17.017,0.01,0.01,0.00,0.02
17.027,0.01,0.01,0.01,0.02
17.037,0.00,0.01,-0.00,0.01
17.047,0.00,-0.00,-0.00,0.00
17.057,0.01,-0.01,-0.02,0.03
17.067,0.03,0.00,0.00,0.03
17.077,0.00,0.01,-0.00,0.01
17.087,-0.00,-0.01,0.02,0.02
17.097,0.02,0.01,0.03,0.03
17.107,0.01,0.02,0.01,0.03
17.117,-0.02,0.03,0.00,0.04
17.127,-0.01,0.02,-0.03,0.03
17.138,-0.02,0.02,-0.04,0.04
17.148,-0.02,0.01,-0.05,0.05
17.158,0.00,0.00,-0.01,0.01
17.168,0.01,-0.00,-0.01,0.02
17.178,0.02,0.03,-0.00,0.04
17.188,0.00,0.02,-0.00,0.02
17.198,-0.02,0.02,0.01,0.03
17.208,-0.02,0.01,0.01,0.02
17.218,-0.01,0.01,0.00,0.02
17.228,-0.01,0.00,0.01,0.01
17.238,0.01,0.01,0.02,0.02
17.248,0.01,0.01,-0.01,0.02
17.258,0.01,0.01,-0.02,0.03
17.268,0.03,-0.00,-0.01,0.03
17.279,0.02,0.00,-0.01,0.02
17.289,0.01,0.00,0.01,0.01
17.299,0.01,0.01,0.01,0.02
17.309,0.02,0.01,0.00,0.02
17.319,0.01,0.02,0.01,0.02
17.329,0.01,0.00,0.01,0.02
17.339,0.01,-0.01,0.00,0.02
17.349,-0.01,-0.02,-0.01,0.02
17.359,-0.01,0.00,-0.04,0.04
17.369,-0.00,0.01,-0.05,0.05
17.379,-0.00,0.02,-0.04,0.05
17.389,0.00,0.02,-0.02,0.03
17.396,0.02,0.01,0.01,0.03
17.406,0.00,0.02,0.03,0.03
17.416,-0.01,-0.01,0.04,0.04
17.426,0.01,-0.04,0.04,0.05
17.436,-0.01,-0.03,0.03,0.04
17.446,-0.02,-0.01,-0.01,0.02
17.456,0.01,-0.01,-0.00,0.01
17.466,0.00,0.02,0.01,0.02
17.476,0.02,0.04,0.00,0.05
17.486,0.02,0.04,0.00,0.05
17.496,0.02,0.04,-0.02,0.05
17.506,0.01,0.03,-0.02,0.04
17.516,-0.00,0.01,-0.02,0.03
17.526,-0.00,0.02,-0.02,0.03
17.537,-0.01,-0.00,-0.02,0.02
17.547,-0.00,0.01,0.01,0.01
17.557,-0.01,0.02,-0.00,0.03
17.567,-0.01,0.02,-0.01,0.03
17.577,0.00,0.02,0.00,0.02
17.587,0.01,0.01,-0.01,0.02
17.597,0.01,0.02,-0.01,0.02
17.607,0.01,0.01,0.00,0.01
17.617,0.01,-0.00,-0.01,0.01
17.627,0.01,-0.00,-0.01,0.02
17.637,0.01,0.00,-0.01,0.02
17.647,0.02,-0.00,-0.00,0.02
17.657,-0.00,-0.00,0.02,0.02
17.667,0.01,-0.00,0.02,0.02
17.678,0.00,-0.01,0.01,0.01
17.688,-0.01,-0.02,-0.01,0.02
17.698,-0.00,-0.01,0.02,0.02
17.708,-0.01,0.01,0.01,0.01
17.718,-0.00,0.01,-0.01,0.01
17.728,0.00,0.01,-0.01,0.01
17.738,0.01,0.01,-0.01,0.02
17.748,0.01,0.01,-0.01,0.02
17.758,0.02,0.01,-0.02,0.03
17.768,0.02,0.01,-0.01,0.03
17.778,0.01,0.01,-0.01,0.01
17.788,-0.00,0.00,-0.01,0.01
17.798,-0.02,0.00,-0.00,0.02
17.808,-0.02,0.01,-0.01,0.02
17.818,-0.00,0.01,0.00,0.01
17.829,0.01,0.00,0.02,0.02
17.839,-0.00,0.01,0.00,0.02
17.849,-0.01,0.01,-0.00,0.01
17.859,0.01,0.01,-0.00,0.02
17.869,0.00,0.01,-0.01,0.01
17.879,-0.01,0.02,0.01,0.02
17.889,-0.01,0.01,0.00,0.02
17.899,-0.00,0.00,0.01,0.01
17.909,0.00,0.01,-0.00,0.01
17.919,0.00,0.01,-0.01,0.02
17.929,0.02,0.00,-0.01,0.02
17.939,0.01,-0.01,-0.01,0.01
17.949,-0.01,0.01,0.01,0.02
17.959,-0.01,0.01,-0.01,0.02
17.969,-0.03,0.02,-0.00,0.03
17.979,-0.01,0.01,-0.01,0.02
17.990,-0.01,0.00,-0.02,0.02
18.000,0.02,0.02,0.00,0.02
18.010,0.01,0.02,-0.02,0.02
18.020,0.01,0.00,-0.01,0.01
18.030,0.01,0.01,-0.00,0.01
18.040,0.02,0.00,0.01,0.02
18.050,0.02,-0.00,-0.02,0.02
18.060,0.01,0.01,-0.00,0.01
18.070,0.01,-0.01,-0.00,0.02
18.080,0.03,-0.02,-0.01,0.04
18.090,0.01,-0.01,0.01,0.02
18.100,0.00,0.01,0.01,0.02
18.110,0.02,0.01,-0.01,0.02
18.120,0.02,0.02,0.00,0.02
18.131,0.02,0.01,0.01,0.03
18.141,0.00,-0.00,0.01,0.01
18.151,0.01,0.00,-0.00,0.01
18.161,0.00,-0.01,-0.02,0.02
18.171,-0.03,0.02,-0.03,0.05
18.181,-0.02,0.02,-0.04,0.05
18.191,0.01,0.01,-0.02,0.03
18.201,0.01,0.03,-0.02,0.04
18.211,0.02,0.05,0.01,0.05
18.221,-0.00,0.05,0.01,0.05
18.231,-0.00,-0.02,0.01,0.02
18.241,-0.01,-0.03,0.02,0.04
18.251,-0.02,-0.06,0.02,0.07
18.261,-0.01,-0.03,-0.00,0.03
18.271,-0.00,-0.01,0.01,0.02
18.281,0.02,0.01,0.03,0.03
18.292,0.03,0.04,0.02,0.05
18.302,0.00,0.05,-0.00,0.05
18.312,0.01,0.04,-0.01,0.04
18.322,0.01,0.03,-0.02,0.04
18.332,-0.01,0.02,-0.03,0.04
18.342,-0.01,0.02,-0.03,0.03
18.352,0.00,0.00,-0.04,0.04
18.362,-0.01,0.02,0.01,0.02
18.372,-0.01,0.02,0.02,0.04
18.382,-0.01,0.02,0.01,0.02
18.392,-0.00,0.00,-0.00,0.01
18.402,-0.00,0.01,-0.01,0.02
18.413,-0.01,0.01,-0.02,0.03
18.422,-0.00,-0.01,-0.00,0.01
18.432,0.00,-0.01,-0.01,0.01
18.443,0.01,0.00,0.00,0.01
18.453,0.03,0.00,0.02,0.03
18.463,0.01,-0.01,-0.00,0.02
18.473,-0.00,-0.02,0.00,0.02
18.483,-0.02,-0.00,0.01,0.02
18.493,-0.01,-0.01,0.00,0.01
18.503,-0.01,-0.02,-0.01,0.02
18.513,-0.01,-0.01,-0.01,0.02
18.523,-0.01,0.01,-0.02,0.02
18.533,-0.00,0.02,-0.00,0.02
18.543,0.01,0.02,0.00,0.02
18.553,0.01,0.03,0.00,0.03
18.563,0.00,0.03,-0.00,0.03
18.573,0.02,0.02,-0.01,0.03
18.584,0.02,0.01,-0.02,0.03
18.594,0.01,0.02,0.01,0.02
18.604,0.02,0.01,0.02,0.03
18.614,-0.01,-0.00,-0.00,0.01
18.624,0.01,-0.00,-0.02,0.02
18.634,0.01,-0.00,-0.02,0.02
18.644,0.01,-0.01,-0.01,0.02
18.654,-0.00,-0.03,-0.01,0.03
18.664,-0.01,-0.02,-0.01,0.02
18.674,0.01,-0.01,0.00,0.02
18.684,0.01,-0.00,-0.00,0.01
18.694,0.01,-0.01,-0.01,0.02
18.704,-0.01,-0.01,-0.03,0.03
18.714,-0.00,-0.00,-0.06,0.06
18.725,-0.02,0.01,-0.06,0.07
18.735,-0.03,0.02,-0.03,0.05
18.745,0.00,0.03,0.02,0.04
18.755,0.03,0.01,0.05,0.06
18.765,0.06,0.01,0.08,0.10
18.775,0.05,0.00,0.09,0.10
18.785,0.01,-0.03,0.08,0.09
18.795,-0.02,-0.04,0.04,0.06
18.805,-0.02,-0.04,-0.01,0.05
18.815,0.01,-0.02,-0.09,0.09
18.825,0.06,0.03,-0.13,0.14
18.835,0.09,0.06,-0.09,0.13
18.845,0.09,0.08,-0.00,0.12
18.855,0.09,0.06,0.06,0.13
18.866,0.04,0.06,0.07,0.10
18.876,-0.01,0.03,0.06,0.07
18.886,-0.06,-0.01,0.03,0.07
18.896,-0.11,-0.04,-0.02,0.11
18.906,-0.10,-0.04,-0.07,0.13
18.916,-0.06,-0.01,-0.07,0.10
18.926,-0.01,0.02,-0.04,0.04
18.936,0.05,0.05,-0.01,0.07
18.946,0.07,0.03,0.02,0.08
18.956,0.05,-0.01,0.05,0.07
18.966,0.01,-0.03,0.04,0.05
18.976,-0.01,-0.04,0.01,0.04
18.986,-0.02,-0.03,0.02,0.04
18.996,0.00,-0.00,-0.01,0.01
19.006,0.03,0.03,-0.02,0.04
19.017,0.04,0.04,-0.02,0.06
19.027,0.02,0.06,-0.02,0.06
19.037,-0.00,0.06,-0.05,0.08
19.047,-0.06,0.02,-0.06,0.09
19.057,-0.13,-0.04,-0.04,0.14
19.067,-0.14,-0.06,0.04,0.16
19.077,-0.11,-0.09,0.12,0.19
19.087,-0.03,-0.08,0.15,0.17
19.097,-0.01,-0.07,0.14,0.16
19.107,0.05,-0.07,0.09,0.13
19.117,0.09,-0.06,-0.00,0.11
19.127,0.13,-0.09,-0.13,0.21
19.137,0.10,-0.13,-0.23,0.29
19.147,0.08,-0.18,-0.29,0.35
19.158,0.03,-0.16,-0.25,0.30
19.168,-0.00,-0.11,-0.16,0.20
19.178,0.03,-0.00,-0.10,0.11
19.188,0.08,0.08,0.05,0.13
19.198,0.08,0.17,0.17,0.26
19.208,-0.03,0.19,0.21,0.28
19.218,-0.18,0.19,0.17,0.31
19.228,-0.32,0.15,0.11,0.37
19.238,-0.43,0.12,0.07,0.45
19.248,-0.46,0.05,0.00,0.46
19.258,-0.40,0.12,-0.11,0.43
19.268,-0.19,0.27,-0.20,0.38
19.278,-0.03,0.27,-0.12,0.29
19.288,0.13,0.06,-0.02,0.14
19.299,0.25,-0.11,0.05,0.28
19.308,0.29,-0.11,0.04,0.31
19.319,0.26,-0.09,0.02,0.28
19.329,0.24,-0.08,0.01,0.25
19.339,0.23,-0.07,0.02,0.24
19.349,0.14,-0.09,0.06,0.18
19.359,0.11,-0.11,0.10,0.18
19.369,0.08,-0.12,0.13,0.19
19.379,0.02,-0.13,0.12,0.17
19.389,-0.00,-0.10,0.09,0.14
19.399,0.00,-0.08,0.04,0.09
19.409,0.04,-0.06,-0.01,0.07
19.419,0.06,0.01,-0.05,0.08
19.429,0.08,0.07,-0.11,0.16
19.439,0.12,0.17,-0.08,0.22
19.450,0.13,0.26,-0.03,0.29
19.460,0.12,0.29,-0.01,0.31
19.470,0.06,0.31,0.02,0.31
19.480,-0.01,0.25,0.03,0.25
19.490,-0.04,0.16,0.06,0.17
19.500,-0.08,0.06,0.07,0.12
19.510,-0.10,-0.00,0.06,0.11
19.520,-0.09,-0.02,0.00,0.10
19.530,-0.09,-0.02,-0.05,0.10
19.540,-0.07,0.00,-0.08,0.10
19.550,-0.06,0.00,-0.10,0.11
19.560,-0.06,0.00,-0.11,0.13
19.570,-0.03,-0.01,-0.08,0.08
19.580,0.01,-0.02,-0.03,0.04
19.591,0.03,-0.06,0.02,0.07
19.601,0.02,-0.07,0.04,0.08
19.611,0.04,-0.10,0.06,0.12
19.621,0.02,-0.10,0.06,0.12
19.631,0.03,-0.07,0.05,0.09
19.641,0.02,-0.02,0.07,0.08
19.651,-0.00,0.01,0.03,0.03
19.661,0.01,0.03,-0.05,0.06
19.671,0.01,0.03,-0.12,0.12
19.681,-0.02,0.03,-0.12,0.12
19.691,-0.03,0.01,-0.08,0.09
19.701,-0.05,0.02,-0.06,0.08
19.711,-0.07,0.02,0.00,0.08
19.722,-0.11,0.02,0.04,0.12
19.731,-0.11,0.04,0.06,0.13
19.741,-0.13,0.05,0.09,0.16
19.752,-0.11,0.04,0.10,0.15
19.762,-0.10,0.04,0.09,0.14
19.772,-0.08,0.02,0.02,0.09
19.782,-0.07,0.02,-0.04,0.09
19.792,-0.06,0.01,-0.10,0.12
19.802,-0.03,0.02,-0.15,0.16
19.812,-0.02,0.00,-0.18,0.18
19.822,-0.01,-0.00,-0.11,0.11
19.832,0.03,-0.01,-0.03,0.05
19.842,0.03,-0.03,0.01,0.04
19.852,0.04,-0.06,0.03,0.08
19.862,0.05,-0.07,0.05,0.11
19.872,0.03,-0.05,0.02,0.06
19.883,0.04,-0.04,-0.00,0.06
19.893,0.04,-0.03,-0.02,0.05
19.903,0.04,-0.00,-0.02,0.05
19.913,0.04,0.03,-0.02,0.05
19.923,0.05,0.05,-0.01,0.08
19.933,0.05,0.07,0.01,0.09
19.943,0.04,0.08,0.01,0.09
19.953,0.02,0.07,0.04,0.09
19.963,0.00,0.03,0.02,0.04
19.973,-0.03,-0.01,0.02,0.04
19.983,0.02,-0.03,0.04,0.05
19.993,0.02,-0.03,0.03,0.04
20.003,0.01,-0.03,0.03,0.04
20.013,0.02,-0.04,-0.01,0.04
20.024,0.02,-0.04,-0.05,0.07
20.033,0.03,-0.03,-0.07,0.08
20.044,0.02,-0.01,-0.04,0.05
20.054,0.00,-0.01,-0.04,0.04
20.064,-0.03,-0.02,-0.04,0.05
20.074,-0.06,-0.02,-0.02,0.06
20.084,-0.09,-0.03,-0.03,0.10
20.094,-0.13,-0.01,-0.02,0.13
20.104,-0.14,0.01,-0.02,0.15
20.114,-0.14,0.04,-0.03,0.15
20.124,-0.16,0.07,-0.01,0.17
20.134,-0.08,0.07,0.01,0.11
20.144,-0.08,0.05,-0.00,0.09
20.154,-0.07,0.01,0.00,0.07
20.165,-0.01,-0.00,0.01,0.01
20.174,-0.05,0.02,0.00,0.05
20.185,-0.03,0.04,-0.01,0.05
20.195,0.05,0.01,-0.01,0.05
20.205,0.06,0.02,-0.01,0.07
20.215,0.08,0.00,0.02,0.08
20.225,0.09,-0.03,0.03,0.11
20.235,0.10,-0.05,0.02,0.11
20.245,0.09,-0.04,0.02,0.10
20.255,0.07,0.01,0.03,0.07
20.265,0.05,0.01,0.03,0.06
20.275,0.01,0.03,-0.01,0.03
20.285,-0.02,-0.00,-0.03,0.03
20.295,-0.02,-0.02,-0.03,0.04
20.305,-0.01,-0.02,-0.02,0.03
20.315,0.04,-0.03,0.01,0.05
20.325,0.06,-0.02,0.01,0.06
20.335,0.04,-0.00,-0.01,0.04
20.346,0.04,0.01,-0.02,0.05
20.356,0.04,0.01,-0.02,0.04
20.366,0.04,-0.01,-0.00,0.04
20.376,0.02,-0.02,-0.02,0.04
20.386,0.03,-0.02,-0.02,0.04
20.396,0.02,-0.01,-0.02,0.03
20.406,0.02,-0.00,-0.01,0.02
20.416,0.01,0.01,-0.01,0.02
20.426,-0.00,0.02,0.02,0.03
20.436,0.01,0.03,0.02,0.04
20.446,-0.02,0.04,0.03,0.05
20.456,-0.03,0.02,0.02,0.04
20.466,-0.03,-0.01,0.02,0.04
20.477,-0.03,-0.01,-0.02,0.03
20.487,-0.01,-0.02,-0.01,0.02
20.497,0.02,-0.00,-0.04,0.04
20.507,0.02,-0.00,-0.06,0.06
20.517,0.04,0.01,-0.04,0.06
20.527,0.02,0.00,-0.03,0.04
20.537,0.04,0.01,0.00,0.04
20.547,0.02,0.00,0.02,0.03
20.557,-0.00,-0.00,-0.00,0.01
20.567,-0.00,0.01,0.00,0.01
20.577,0.02,0.02,0.01,0.03
20.587,0.01,0.02,0.03,0.04
20.597,-0.00,0.02,0.05,0.06
20.607,-0.01,0.01,0.07,0.07
20.617,-0.00,-0.01,0.01,0.02
20.628,0.01,-0.03,-0.06,0.06
20.638,-0.07,-0.04,-0.12,0.14
20.648,-0.03,-0.09,-0.08,0.12
20.658,0.04,-0.07,-0.04,0.09
20.668,0.03,-0.02,-0.00,0.03
20.678,0.06,0.03,0.07,0.09
20.688,0.03,0.06,0.09,0.11
20.698,0.03,0.09,0.08,0.12
20.708,0.02,0.09,0.06,0.11
20.718,-0.00,0.07,0.01,0.07
20.728,-0.01,0.03,-0.03,0.04
20.738,-0.04,-0.01,-0.04,0.06
20.748,-0.04,-0.03,-0.05,0.07
20.758,-0.04,-0.05,-0.06,0.09
20.768,-0.00,-0.05,-0.04,0.06
20.779,0.02,-0.01,0.00,0.03
20.789,0.05,0.01,0.04,0.07
20.799,0.02,0.02,0.06,0.07
20.809,-0.00,0.02,0.05,0.05
20.819,-0.02,0.02,0.03,0.04
20.829,-0.04,0.02,-0.01,0.05
20.839,-0.02,0.02,-0.08,0.09
20.849,0.01,-0.02,-0.12,0.13
20.859,-0.03,-0.05,-0.10,0.12
20.869,0.00,-0.01,-0.00,0.01
20.879,0.02,0.03,0.07,0.08
20.889,0.02,0.03,0.05,0.07
20.900,0.01,0.02,0.06,0.06
20.909,0.01,0.01,0.03,0.03
20.920,0.04,0.01,0.01,0.04
20.930,0.04,0.00,-0.04,0.06
20.940,0.05,-0.01,-0.06,0.07
20.950,0.05,0.02,-0.06,0.08
20.960,0.03,0.02,-0.03,0.05
20.970,0.03,0.05,-0.01,0.05
20.980,0.00,0.04,0.02,0.05
20.990,-0.01,0.01,0.03,0.03
21.000,-0.03,-0.02,0.05,0.06
21.010,-0.04,-0.03,0.04,0.07
21.020,-0.04,-0.05,-0.01,0.06
21.030,-0.01,-0.05,-0.03,0.06
21.040,-0.01,-0.02,-0.07,0.07
21.050,0.01,-0.00,-0.06,0.06
21.061,0.05,0.02,-0.04,0.06
21.071,0.04,0.03,0.00,0.05
21.081,0.04,0.03,0.03,0.06
21.091,0.01,0.01,0.03,0.04
21.101,-0.02,-0.01,0.04,0.05
21.111,-0.04,-0.01,0.01,0.04
21.121,-0.07,-0.03,-0.02,0.07
21.131,-0.04,0.00,-0.04,0.05
21.141,0.00,0.03,-0.05,0.06
21.151,0.02,0.03,-0.03,0.05
21.161,0.01,0.04,-0.01,0.04
21.171,0.01,0.06,-0.00,0.06
21.181,0.01,0.02,0.00,0.02
21.191,0.00,0.03,0.02,0.03
21.201,0.01,0.01,0.03,0.04
21.212,0.04,0.00,0.03,0.05
21.221,0.04,0.01,0.03,0.05
21.232,0.03,-0.00,0.01,0.04
21.242,0.02,-0.02,-0.01,0.03
21.252,0.03,-0.03,0.01,0.04
21.262,0.04,-0.03,0.01,0.05
21.272,0.00,-0.04,-0.02,0.05
21.282,-0.01,-0.03,-0.03,0.05
21.292,0.00,-0.01,-0.05,0.05
21.302,-0.02,0.01,-0.06,0.06
21.312,-0.02,0.04,-0.05,0.06
21.322,-0.01,0.05,0.01,0.05
21.332,-0.02,0.08,0.04,0.09
21.342,-0.03,0.06,0.05,0.08
21.352,-0.03,0.03,0.03,0.05
21.363,-0.03,-0.01,-0.02,0.04
21.373,-0.04,-0.07,-0.03,0.08
21.383,-0.04,-0.09,-0.04,0.11
21.393,-0.02,-0.09,-0.04,0.10
21.403,-0.02,-0.06,-0.01,0.06
21.413,0.02,-0.02,0.01,0.03
21.423,0.03,0.02,0.03,0.05
21.433,0.03,0.05,0.03,0.07
21.443,0.04,0.06,0.03,0.08
21.453,0.07,0.06,-0.00,0.09
21.463,0.06,0.02,-0.02,0.07
21.473,0.05,-0.00,-0.04,0.06
21.483,0.07,-0.04,-0.04,0.09
21.493,0.05,-0.03,-0.03,0.06
21.504,0.06,-0.01,-0.01,0.06
21.514,0.03,-0.00,0.02,0.03
21.524,0.02,0.03,0.05,0.06
21.534,0.02,0.04,0.03,0.05
21.544,-0.01,0.03,-0.00,0.03
21.554,0.01,0.04,-0.03,0.05
21.564,-0.00,0.02,-0.02,0.03
21.574,0.00,0.01,-0.01,0.02
21.584,0.01,0.01,-0.03,0.03
21.594,-0.04,-0.02,-0.00,0.04
21.604,-0.09,-0.02,0.03,0.10
21.614,-0.07,-0.01,0.01,0.08
21.624,-0.06,-0.02,-0.02,0.07
21.634,-0.04,-0.01,-0.04,0.06
21.644,-0.02,0.01,-0.03,0.04
21.655,0.00,0.03,-0.02,0.04
21.665,0.03,0.06,-0.02,0.07
21.675,0.04,0.06,0.00,0.07
21.685,0.04,0.05,0.01,0.06
21.695,0.04,0.02,-0.01,0.04
21.705,0.01,-0.00,-0.01,0.02
21.715,0.01,-0.04,0.00,0.04
21.725,0.04,-0.02,0.02,0.05
21.735,0.07,-0.03,0.01,0.08
21.745,0.08,-0.02,0.01,0.08
21.755,0.06,-0.02,-0.01,0.07
21.765,0.06,-0.03,0.02,0.07
21.775,0.04,-0.03,0.03,0.06
21.785,-0.00,-0.02,0.02,0.03
21.795,-0.01,-0.01,0.00,0.02
21.806,0.00,-0.00,-0.01,0.01
21.816,0.01,0.01,-0.01,0.02
21.826,0.02,-0.01,-0.00,0.02
21.836,0.01,0.02,-0.01,0.02
21.846,0.04,0.01,-0.02,0.04
21.856,0.04,0.00,-0.03,0.05
21.866,0.01,0.01,-0.00,0.01
21.876,0.01,0.02,-0.01,0.02
21.886,-0.00,0.00,0.00,0.00
21.896,-0.01,-0.02,-0.02,0.03
21.906,-0.02,-0.01,-0.02,0.03
21.916,-0.01,-0.02,0.00,0.02
21.926,-0.00,-0.02,0.02,0.02
21.936,-0.00,0.01,0.02,0.02
21.946,-0.01,0.01,-0.00,0.01
21.957,-0.03,0.00,0.00,0.03
21.967,-0.01,0.01,0.00,0.02
21.977,-0.03,-0.02,-0.00,0.04
21.987,-0.04,-0.01,-0.01,0.05
21.997,-0.02,-0.03,-0.02,0.04
22.007,-0.01,0.00,-0.04,0.04
22.017,-0.01,0.02,-0.05,0.05
22.027,0.01,0.03,-0.03,0.04
22.037,0.02,0.03,-0.03,0.05
22.047,0.03,0.02,0.01,0.04
22.057,0.02,-0.00,0.03,0.04
22.067,0.02,-0.01,0.05,0.06
22.077,0.04,-0.03,0.04,0.07
22.087,-0.00,-0.06,0.02,0.07
22.098,-0.01,-0.06,-0.00,0.06
22.108,0.00,-0.04,-0.01,0.04
22.118,0.03,-0.00,-0.01,0.03
22.128,0.04,0.03,0.01,0.05
22.138,0.05,0.05,0.03,0.07
22.148,0.05,0.04,0.02,0.07
22.158,0.04,0.04,0.00,0.06
22.168,0.03,0.02,-0.01,0.04
22.178,0.01,-0.01,-0.04,0.05
22.188,0.01,-0.02,-0.05,0.05
22.198,-0.00,-0.01,-0.02,0.03
22.208,0.02,-0.02,0.00,0.03
22.218,-0.01,-0.00,0.02,0.02
22.228,0.02,0.01,0.01,0.03
22.239,0.02,0.00,0.00,0.02
22.249,-0.01,0.02,0.01,0.03
22.259,-0.04,0.02,-0.00,0.04
22.269,-0.01,0.02,-0.01,0.02
22.279,0.01,0.00,-0.02,0.03
22.289,-0.01,-0.03,-0.03,0.05
22.299,-0.04,-0.04,-0.03,0.06
22.309,-0.04,-0.04,0.01,0.06
22.319,-0.00,-0.00,0.01,0.01
22.329,0.01,0.00,-0.00,0.01
22.339,-0.01,0.01,0.00,0.02
22.349,-0.01,0.03,0.01,0.03
22.359,0.01,0.04,-0.00,0.04
22.369,0.03,0.04,-0.04,0.07
22.379,-0.00,0.01,-0.02,0.02
22.390,-0.00,0.03,-0.01,0.03
22.400,0.04,0.04,-0.02,0.06
22.410,0.09,0.01,-0.03,0.09
22.420,0.02,-0.02,-0.02,0.04
22.430,-0.05,-0.05,-0.00,0.07
22.440,-0.09,-0.06,0.01,0.11
22.450,-0.13,-0.07,-0.02,0.15
22.460,-0.11,-0.06,-0.00,0.13
22.470,-0.02,-0.01,0.03,0.04
22.480,0.07,0.03,0.04,0.09
22.490,0.09,0.04,-0.01,0.09
22.500,0.06,0.03,-0.05,0.09
22.510,0.05,-0.01,-0.08,0.09
22.521,-0.03,-0.02,-0.05,0.06
22.530,-0.05,-0.01,-0.01,0.05
22.541,-0.04,-0.01,0.01,0.05
22.551,-0.06,-0.01,0.03,0.07
22.561,-0.03,-0.00,0.02,0.04
22.571,-0.01,0.00,0.03,0.03
22.581,0.00,0.03,0.01,0.03
22.591,0.01,0.07,0.01,0.08
22.601,0.01,0.09,-0.00,0.09
22.611,0.03,0.09,-0.03,0.10
22.621,-0.02,0.02,-0.03,0.03
22.631,0.00,-0.03,-0.03,0.04
22.641,0.02,-0.05,0.01,0.06
22.651,0.03,-0.10,0.03,0.11
22.661,0.06,-0.06,-0.01,0.09
22.671,0.06,-0.01,-0.00,0.06
22.681,0.08,0.03,-0.01,0.09
22.692,0.09,0.05,-0.01,0.11
22.702,0.05,0.03,0.03,0.07
22.712,0.03,0.02,0.03,0.05
22.722,0.03,-0.01,0.00,0.03
22.732,0.03,-0.01,-0.02,0.03
22.742,-0.00,-0.02,-0.07,0.07
22.752,-0.03,-0.01,-0.09,0.09
22.762,-0.05,-0.02,-0.04,0.07
22.772,-0.04,0.02,0.04,0.07
22.782,-0.03,0.02,0.09,0.10
22.792,0.01,0.01,0.13,0.14
22.802,0.11,0.01,0.12,0.16
22.812,0.05,-0.01,0.02,0.05
22.822,-0.09,-0.07,-0.10,0.15
22.833,-0.20,-0.18,-0.14,0.31
22.843,-0.22,-0.22,-0.12,0.33
22.853,-0.20,-0.19,-0.08,0.28
22.863,-0.04,-0.05,0.05,0.08
22.873,0.11,0.08,0.07,0.16
22.883,0.29,0.19,0.10,0.36
22.893,0.32,0.18,0.04,0.37
22.903,0.25,0.17,0.02,0.31
22.913,0.19,0.16,0.05,0.25
22.923,0.14,0.11,0.03,0.18
22.933,-0.01,0.06,-0.05,0.08
22.943,-0.09,-0.02,-0.10,0.14
22.953,-0.03,-0.10,-0.05,0.12
22.963,0.02,-0.13,0.02,0.13
22.973,-0.03,-0.16,0.05,0.17
22.984,-0.07,-0.13,-0.01,0.15
22.994,-0.10,-0.06,-0.06,0.13
23.004,-0.13,-0.03,-0.08,0.15
23.014,-0.11,0.08,-0.04,0.15
23.024,-0.07,0.13,-0.01,0.15
23.034,-0.10,0.10,0.12,0.19
23.044,0.04,0.01,0.12,0.13
23.054,0.02,-0.02,0.02,0.03
23.064,-0.03,-0.05,-0.07,0.09
23.074,-0.05,-0.06,-0.11,0.13
23.084,0.02,-0.11,-0.09,0.14
23.094,0.03,-0.10,-0.04,0.11
23.104,-0.02,-0.01,0.02,0.03
23.114,0.01,0.07,0.03,0.07
23.125,0.02,0.12,0.01,0.12
23.135,-0.04,0.12,-0.05,0.13
23.145,-0.13,0.07,-0.08,0.17
23.155,-0.17,-0.04,-0.05,0.18
23.165,-0.18,-0.12,-0.04,0.23
23.175,-0.19,-0.17,-0.02,0.26
23.185,-0.11,-0.14,-0.01,0.18
23.195,-0.12,-0.09,-0.03,0.15
23.205,-0.05,0.04,0.03,0.07
23.215,0.04,0.18,0.07,0.19
23.225,0.25,0.27,0.14,0.39
23.235,0.36,0.31,0.14,0.50
23.245,0.39,0.23,0.08,0.46
23.255,0.21,0.12,-0.01,0.24
23.265,-0.04,0.03,-0.07,0.09
23.276,-0.02,0.00,0.02,0.03
23.286,0.17,-0.05,0.05,0.19
23.296,0.23,-0.07,0.02,0.24
23.306,0.28,-0.13,0.06,0.31
23.316,0.13,-0.16,0.05,0.21
23.326,-0.12,-0.17,-0.17,0.27
23.336,-0.15,-0.12,-0.16,0.25
23.346,-0.31,-0.13,-0.15,0.37
23.356,-0.36,-0.10,-0.04,0.37
23.366,-0.29,-0.09,0.03,0.31
23.376,-0.30,-0.03,-0.04,0.30
23.386,-0.13,-0.05,0.02,0.14
23.396,0.22,-0.09,0.08,0.25
23.406,0.33,-0.18,-0.12,0.40
23.417,0.21,-0.29,-0.24,0.43
23.427,-0.09,-0.30,-0.35,0.47
23.437,-0.25,-0.15,-0.19,0.35
23.447,-0.27,0.02,-0.05,0.27
23.457,-0.21,0.22,0.09,0.32
23.467,-0.08,0.37,0.26,0.45
23.477,0.18,0.37,0.19,0.46
23.487,0.15,0.41,0.12,0.45
23.497,-0.08,0.42,0.07,0.44
23.507,-0.25,0.42,0.13,0.51
23.517,-0.34,0.39,0.25,0.58
23.527,-0.32,0.37,0.28,0.57
23.537,-0.18,0.27,0.26,0.41
23.547,-0.08,0.12,0.12,0.19
23.557,0.16,-0.10,-0.12,0.22
23.568,0.52,-0.37,-0.30,0.71
23.578,0.75,-0.46,-0.36,0.95
23.588,0.46,-0.42,-0.38,0.73
23.598,0.11,-0.35,-0.17,0.40
23.608,-0.05,-0.23,0.14,0.28
23.618,-0.09,-0.14,0.20,0.26
23.628,-0.25,0.09,-0.30,0.40
23.638,-0.39,0.23,-0.30,0.54
23.648,-0.70,0.24,-0.12,0.75
23.658,-1.37,0.30,0.42,1.46
23.668,-0.51,0.17,1.06,1.19
23.678,-0.20,0.13,1.02,1.05
23.688,0.22,0.09,0.87,0.90
23.698,1.15,0.03,0.60,1.30
23.709,2.61,0.36,-0.35,2.65
23.719,0.43,0.15,-1.65,1.71
23.729,-0.57,0.12,-1.25,1.38
23.739,0.20,0.37,-0.58,0.72
23.749,0.27,0.30,0.16,0.43
23.759,-0.18,0.09,0.62,0.66
23.769,-0.25,-0.25,0.50,0.61
23.779,-0.23,-0.42,0.09,0.49
23.789,-0.38,-0.28,-0.28,0.55
23.799,-0.26,-0.13,-0.35,0.45
23.809,-0.03,-0.09,-0.28,0.30
23.819,-0.07,-0.20,-0.04,0.21
23.829,-0.11,-0.33,0.12,0.37
23.839,0.09,-0.38,0.05,0.39
23.849,0.29,-0.29,-0.10,0.43
23.859,0.36,-0.23,0.01,0.43
23.870,0.21,-0.23,0.25,0.40
23.880,-0.61,-0.01,0.27,0.66
23.890,-0.37,0.20,0.15,0.44
23.900,-0.03,0.33,0.02,0.33
23.910,0.23,0.49,-0.05,0.54
23.920,0.67,0.28,-0.09,0.73
23.930,0.62,0.09,-0.29,0.69
23.940,0.69,0.21,-0.41,0.83
23.950,0.90,0.31,-0.65,1.15
23.960,0.83,0.43,-0.64,1.13
23.970,0.74,0.65,-0.16,1.00
23.980,0.79,0.69,-0.19,1.07
23.991,0.95,1.04,-0.28,1.44
24.001,0.86,1.37,-0.17,1.62
24.011,0.49,1.36,-0.27,1.48
24.021,0.08,1.02,-0.18,1.04
24.031,-0.25,0.66,0.07,0.71
24.041,0.25,0.24,0.24,0.42
24.051,0.68,0.11,0.34,0.77
24.061,1.13,0.16,0.63,1.30
24.071,1.11,0.27,0.80,1.39
24.081,0.76,0.29,0.58,1.00
24.091,0.46,0.33,0.31,0.65
24.101,0.48,0.31,0.13,0.58
24.111,0.73,0.15,0.18,0.77
24.121,0.72,0.08,0.41,0.84
24.132,0.69,0.25,0.41,0.84
24.141,0.86,0.25,0.19,0.92
24.151,0.60,0.13,0.18,0.64
24.162,0.09,-0.02,-0.54,0.54
24.172,0.18,-0.09,-0.55,0.59
24.182,0.76,-0.17,-0.37,0.86
24.192,0.80,-0.38,-0.31,0.94
24.202,0.79,-0.50,-0.19,0.96
24.212,1.14,-0.48,-0.37,1.29
24.222,1.14,-0.38,-0.60,1.34
24.232,0.59,-0.26,-0.97,1.17
24.242,0.15,-0.07,-0.88,0.90
24.252,-0.05,0.14,-0.50,0.52
24.262,0.13,0.31,-0.56,0.66
24.272,0.73,0.28,-0.65,1.01
24.282,1.34,0.18,-0.25,1.38
24.293,1.82,0.09,-0.02,1.82
24.303,2.02,0.18,-0.02,2.03
24.313,1.77,0.58,-0.01,1.86
24.323,1.39,1.00,-0.38,1.75
24.333,0.89,1.20,-0.75,1.67
24.343,0.22,0.87,-0.50,1.03
24.353,-0.06,0.52,-0.18,0.56
24.363,0.09,0.62,-0.10,0.63
24.373,0.61,0.75,-0.25,1.00
24.383,1.70,0.47,-0.63,1.87
24.393,1.69,-0.16,-0.93,1.94
24.403,1.04,-0.65,-1.36,1.84
24.413,0.21,-0.90,-1.52,1.79
24.423,-0.68,-1.16,-2.02,2.43
24.433,-1.28,-1.19,-2.84,3.34
24.443,-1.34,-0.69,-3.96,4.24
24.454,-0.73,-0.40,-3.31,3.41
24.463,-0.22,-1.03,-1.86,2.14
24.474,-0.21,-1.52,-1.18,1.93
24.484,-0.80,-1.85,-0.93,2.22
24.494,-1.99,-1.92,-0.52,2.81
24.504,-2.35,-1.34,-0.35,2.73
24.514,-1.63,-0.58,-0.21,1.74
24.524,-0.43,-0.21,0.07,0.48
24.534,0.01,-0.47,-0.04,0.47
24.544,-0.04,-1.15,-0.43,1.23
24.554,-0.50,-1.60,-0.55,1.76
24.564,-0.92,-1.35,-0.83,1.83
24.574,-0.28,-0.86,-1.41,1.68
24.584,0.23,-0.83,-1.85,2.04
24.595,0.28,-1.45,-1.95,2.45
24.605,0.05,-2.40,-1.58,2.88
24.615,-0.46,-2.38,-1.09,2.66
24.625,-0.42,-1.26,-0.71,1.50
24.635,-0.38,-0.29,-0.68,0.83
24.645,-0.05,-0.19,-0.99,1.01
24.655,0.22,-1.05,-1.42,1.78
24.665,0.05,-1.35,-1.80,2.25
24.675,-0.54,-0.99,-1.94,2.24
24.685,-0.77,-0.98,-2.09,2.43
24.695,-0.69,-1.27,-2.32,2.74
24.705,-0.25,-1.32,-2.35,2.70
24.715,-0.35,-1.41,-2.34,2.75
24.725,-0.56,-1.77,-2.32,2.97
24.735,-0.88,-1.98,-2.15,3.05
24.745,-0.80,-2.01,-1.75,2.78
24.756,-0.49,-2.15,-1.39,2.61
24.766,-0.43,-2.09,-1.39,2.55
24.776,-0.53,-2.02,-1.21,2.41
24.786,-0.52,-1.78,-0.94,2.08
24.796,-0.39,-1.58,-0.91,1.86
24.806,-0.26,-1.56,-1.05,1.90
24.816,-0.31,-1.32,-1.27,1.86
24.826,-0.15,-0.80,-2.35,2.49
24.836,0.36,-1.05,-2.07,2.35
24.846,0.54,-1.17,-2.06,2.43
24.856,0.35,-1.86,-3.45,3.94
24.867,0.24,-1.78,-2.59,3.15
24.876,0.30,-1.94,-0.37,2.00
24.887,0.38,-1.92,0.82,2.12
24.897,1.14,-1.57,1.88,2.70
24.907,1.18,-2.06,2.01,3.11
24.917,0.50,-2.82,0.76,2.97
24.927,-0.25,-3.29,-1.14,3.49
24.937,-1.26,-3.03,-3.03,4.47
24.947,-2.03,-1.90,-4.83,5.57
24.957,-2.19,-0.01,-5.07,5.52
24.967,-3.30,-0.02,-4.39,5.49
24.977,-3.79,0.03,-4.69,6.03
24.987,-1.07,0.32,-5.35,5.47
24.997,0.53,-0.54,-4.37,4.44
25.007,0.96,-1.77,-2.73,3.39
25.017,1.55,-1.35,-1.66,2.64
25.027,2.21,-0.46,-0.33,2.28
25.038,0.89,0.11,0.04,0.90
25.048,-0.55,0.22,0.08,0.60
25.058,-1.20,0.24,0.37,1.28
25.068,-1.37,0.29,0.61,1.53
25.078,-0.93,0.25,0.66,1.17
25.088,-0.12,0.19,0.45,0.50
25.098,0.58,0.15,0.04,0.60
25.108,1.19,0.05,-0.36,1.24
25.118,1.51,-0.00,-0.53,1.60
25.128,1.54,-0.05,-0.58,1.64
25.138,1.20,-0.08,-0.51,1.30
25.148,0.72,-0.14,-0.41,0.84
25.158,0.48,-0.19,-0.32,0.61
25.168,0.42,-0.22,-0.16,0.50
25.178,0.23,-0.21,0.03,0.31
25.189,-0.15,-0.11,0.26,0.32
25.199,-0.48,0.01,0.43,0.64
25.209,-0.68,0.04,0.43,0.80
25.219,-0.73,-0.08,0.23,0.77
25.229,-0.56,-0.05,0.01,0.57
25.239,-0.36,0.05,-0.15,0.39
25.249,-0.05,0.11,-0.30,0.32
25.259,-0.07,-0.18,-0.20,0.28
25.269,0.14,-0.02,0.03,0.14
25.279,0.25,-0.06,0.11,0.28
25.289,0.17,-0.27,0.06,0.32
25.299,0.29,-0.14,-0.11,0.34
25.310,0.26,-0.19,-0.39,0.51
25.319,0.44,-0.03,-0.70,0.83
25.330,0.36,-0.16,-0.93,1.01
25.340,0.46,0.06,-1.03,1.13
25.350,0.33,-0.01,-0.96,1.01
25.360,0.07,-0.24,-0.80,0.84
25.370,0.16,-0.31,-0.61,0.70
25.380,0.19,-0.20,-0.42,0.50
25.390,0.35,-0.28,-0.36,0.57
25.400,0.43,-0.34,-0.41,0.68
25.410,0.09,-0.61,-0.11,0.63
25.420,0.09,-0.76,0.57,0.96
25.430,0.47,-0.77,0.06,0.90
25.440,0.76,-1.09,0.64,1.48
25.450,1.23,-1.20,0.85,1.92
25.460,1.61,-1.19,0.62,2.10
25.470,1.66,-0.95,0.39,1.95
25.480,1.57,-0.68,0.23,1.73
25.491,1.27,-0.46,0.00,1.35
25.501,0.90,-0.25,0.04,0.94
25.511,0.73,-0.15,0.29,0.80
25.521,0.70,-0.21,0.45,0.86
25.531,0.66,-0.30,0.59,0.94
25.541,0.60,-0.27,0.64,0.92
25.551,0.55,-0.14,0.57,0.81
25.561,0.56,-0.02,0.42,0.70
25.571,0.49,0.10,0.24,0.56
25.581,0.41,0.24,0.12,0.49
25.591,0.35,0.37,0.02,0.51
25.601,0.35,0.47,-0.10,0.59
25.611,0.43,0.43,-0.21,0.64
25.621,0.49,0.39,-0.32,0.70
25.632,0.53,0.34,-0.41,0.75
25.642,0.61,0.26,-0.47,0.81
25.652,0.61,0.28,-0.33,0.74
25.662,0.42,0.22,-0.15,0.50
25.672,0.38,-0.16,0.63,0.76
25.682,-0.11,0.05,0.09,0.15
25.692,-0.42,0.40,-0.40,0.70
25.702,-0.32,0.57,-0.68,0.94
