time,ax,ay,az,atotal
0.000,0.70,-0.00,-0.13,0.71
0.010,0.87,0.03,-0.32,0.92
0.020,0.79,-0.06,-0.53,0.95
0.030,0.66,-0.18,-0.48,0.84
0.040,0.63,-0.16,-0.25,0.70
0.050,0.66,-0.08,-0.02,0.67
0.060,0.35,0.18,0.02,0.39
0.070,0.18,0.44,-0.08,0.48
0.081,0.16,0.28,-0.26,0.42
0.091,0.25,-0.20,-0.43,0.53
0.101,0.34,-0.17,-0.32,0.50
0.111,0.49,0.10,-0.35,0.61
0.121,0.65,0.24,-0.46,0.83
0.131,0.59,0.23,-0.35,0.72
0.141,0.49,0.07,-0.37,0.62
0.151,0.53,-0.34,-0.23,0.67
0.161,0.64,-1.00,0.59,1.33
0.171,1.02,-1.18,0.16,1.57
0.181,1.11,-1.13,0.10,1.59
0.191,1.02,-0.72,0.05,1.25
0.201,0.99,-0.41,-0.03,1.07
0.211,0.96,-0.27,-0.16,1.01
0.221,0.87,-0.23,-0.36,0.97
0.232,0.75,-0.17,-0.44,0.89
0.242,0.62,0.00,-0.67,0.91
0.252,0.45,0.19,-0.91,1.03
0.262,0.24,-0.09,-1.17,1.20
0.272,-0.85,-1.32,0.60,1.68
0.282,-1.21,-1.62,1.44,2.48
0.292,-0.90,-0.30,0.22,0.97
0.302,-0.01,0.67,-0.30,0.74
0.312,1.14,0.69,-1.90,2.32
0.322,1.23,0.20,-1.55,1.99
0.332,1.12,0.01,-1.21,1.65
0.342,1.91,-0.57,-1.16,2.31
0.352,1.46,-0.42,-1.12,1.88
0.362,0.21,0.07,-1.88,1.90
0.373,0.20,0.48,-2.28,2.34
0.383,0.60,0.24,-1.86,1.97
0.393,1.72,-0.19,-2.15,2.76
0.403,1.55,-0.42,-2.56,3.02
0.413,1.56,-1.08,-2.05,2.79
0.423,2.47,-1.33,-1.54,3.20
0.433,3.58,-0.97,-0.15,3.72
0.443,3.08,-0.51,0.45,3.16
0.453,2.73,-0.56,0.46,2.83
0.463,2.20,-0.83,0.32,2.38
0.473,1.52,-1.05,0.12,1.85
0.483,0.68,-1.16,-0.17,1.36
0.493,-0.19,-1.25,-0.39,1.33
0.503,-0.87,-1.29,-0.51,1.64
0.513,-1.29,-1.28,-0.64,1.93
0.524,-1.44,-1.18,-0.76,2.01
0.534,-1.36,-1.04,-0.87,1.92
0.544,-1.14,-0.93,-1.01,1.78
0.554,-0.86,-0.89,-1.10,1.66
0.564,-0.59,-0.90,-1.10,1.54
0.574,-0.32,-0.96,-1.09,1.49
0.584,-0.17,-1.05,-1.23,1.63
0.594,-0.24,-0.99,-1.41,1.73
0.604,-0.43,-0.81,-1.37,1.65
0.614,-0.60,-0.69,-1.22,1.53
0.624,-0.67,-0.72,-1.21,1.56
0.634,-0.61,-0.80,-1.36,1.69
0.644,-0.51,-0.87,-1.49,1.80
0.654,-0.49,-0.92,-1.42,1.76
0.664,-0.58,-1.06,-1.34,1.80
0.675,-0.69,-1.21,-1.22,1.85
0.685,-0.83,-1.32,-1.04,1.87
0.695,-0.90,-1.38,-0.89,1.88
0.705,-0.88,-1.34,-0.91,1.84
0.715,-0.95,-1.40,-0.78,1.86
0.725,-1.23,-1.66,-0.55,2.13
0.735,-1.53,-1.76,-0.37,2.36
0.745,-1.68,-1.92,-0.42,2.58
0.755,-1.80,-2.10,-0.68,2.85
0.765,-1.80,-2.16,-0.91,2.96
0.775,-1.62,-2.12,-1.12,2.90
0.785,-1.24,-1.93,-1.30,2.63
0.795,-0.78,-1.64,-1.19,2.18
0.806,-0.48,-1.56,-0.76,1.80
0.815,-0.53,-1.77,-0.22,1.86
0.826,-0.97,-2.01,0.21,2.24
0.836,-1.43,-2.12,0.56,2.62
0.846,-1.62,-2.06,0.88,2.76
0.856,-1.46,-1.90,0.90,2.56
0.866,-1.04,-1.67,0.73,2.10
0.876,-0.69,-1.42,0.53,1.67
0.886,-0.54,-1.20,0.44,1.38
0.896,-0.53,-1.12,0.44,1.31
0.906,-0.57,-1.21,0.53,1.44
0.916,-0.36,-1.14,0.86,1.48
0.926,0.03,-0.89,1.53,1.77
0.937,0.50,-0.71,2.17,2.33
0.946,1.12,-0.59,2.64,2.93
0.957,1.63,-0.44,2.97,3.41
0.967,1.92,-0.35,3.22,3.76
0.977,2.04,-0.36,3.37,3.96
0.987,2.21,-0.24,3.46,4.11
0.997,2.50,-0.03,3.40,4.22
1.007,2.80,0.12,3.16,4.23
1.017,3.09,0.22,2.86,4.22
1.027,3.27,0.34,2.52,4.14
1.037,3.18,0.44,2.06,3.81
1.047,2.88,0.50,1.62,3.34
1.058,2.54,0.57,1.26,2.89
1.067,2.56,0.69,0.66,2.74
1.077,2.94,0.93,0.11,3.08
1.087,3.11,1.03,0.10,3.27
1.098,2.99,0.93,0.00,3.13
1.108,3.03,0.83,-0.28,3.15
1.118,3.00,0.86,-0.64,3.18
1.128,2.51,0.90,-0.88,2.80
1.138,1.93,0.81,-0.80,2.24
1.148,1.69,0.59,-0.66,1.91
1.158,1.85,0.44,-0.48,1.97
1.168,2.29,0.43,-0.35,2.35
1.178,2.64,0.57,0.09,2.70
1.188,2.93,0.63,0.71,3.08
1.198,3.07,0.57,1.39,3.42
1.208,3.25,0.50,1.70,3.70
1.218,3.54,0.63,1.79,4.02
1.228,3.90,0.88,1.58,4.30
1.238,4.15,1.13,1.15,4.45
1.248,4.24,1.38,0.73,4.52
1.259,4.36,1.49,0.23,4.61
1.269,4.53,1.52,-0.18,4.79
1.279,4.45,1.59,-2.03,5.14
1.289,3.59,1.80,-5.21,6.57
1.299,2.64,1.90,-6.94,7.67
1.309,2.87,1.70,-5.83,6.72
1.319,4.08,1.48,-3.18,5.38
1.329,4.62,1.31,-1.17,4.95
1.339,4.19,1.09,0.14,4.33
1.349,3.14,0.88,0.65,3.32
1.359,2.08,0.91,0.30,2.29
1.369,0.92,1.10,-0.30,1.47
1.379,-1.08,0.95,-0.82,1.65
1.390,-3.27,0.19,-1.07,3.44
1.400,-4.40,-0.35,-1.31,4.60
1.410,-3.67,-0.23,-0.51,3.71
1.420,-1.81,0.10,0.73,1.95
1.430,-0.12,0.69,1.07,1.28
1.440,1.39,1.37,1.41,2.41
1.450,1.48,1.39,1.46,2.50
1.460,0.15,0.98,0.53,1.12
1.470,-0.74,0.94,-0.08,1.20
1.480,-0.76,1.21,-0.37,1.48
1.490,-0.17,0.95,-0.15,0.98
1.500,-0.47,0.46,0.18,0.68
1.511,-0.88,0.61,-0.14,1.08
1.521,-0.61,0.51,-0.11,0.80
1.530,-0.58,0.18,0.16,0.63
1.541,-0.35,0.33,0.16,0.51
1.551,0.73,0.62,1.39,1.69
1.561,0.53,-0.01,2.68,2.73
1.571,0.02,0.38,1.90,1.93
1.581,-1.16,0.83,1.68,2.20
1.591,-2.33,0.90,1.43,2.88
1.601,-3.50,1.10,1.46,3.95
1.611,-4.54,1.32,1.16,4.87
1.621,-4.80,1.66,1.21,5.22
1.631,-4.92,1.38,1.16,5.24
1.641,-5.01,0.85,0.93,5.17
1.651,-4.78,0.17,1.05,4.90
1.661,-4.80,-0.37,1.47,5.03
1.671,-4.86,-0.89,1.76,5.25
1.682,-4.89,-1.21,1.99,5.42
1.692,-4.72,-1.51,1.86,5.30
1.702,-3.81,-2.05,1.69,4.64
1.712,-1.47,-2.21,2.00,3.32
1.722,-0.02,-2.08,2.15,2.99
1.732,1.46,-2.00,1.92,3.13
1.742,3.44,-2.14,1.01,4.17
1.752,5.51,-2.17,0.44,5.94
1.762,6.96,-1.09,-0.26,7.05
1.772,6.39,0.12,-1.84,6.65
1.782,3.52,1.46,-4.84,6.16
1.792,1.36,1.27,-5.21,5.54
1.802,-0.23,1.07,-3.78,3.93
1.812,-0.66,-0.39,-2.80,2.90
1.823,0.04,-2.07,-1.81,2.75
1.832,0.36,-2.06,-0.10,2.09
1.843,0.69,-2.56,0.84,2.78
1.853,0.81,-2.93,1.31,3.31
1.863,0.65,-3.12,1.22,3.41
1.873,0.21,-3.33,0.40,3.36
1.883,-0.50,-3.10,-1.05,3.31
1.893,-0.80,-2.09,-1.91,2.94
1.903,-0.54,-1.01,-1.91,2.23
1.913,-0.10,-0.65,-1.61,1.74
1.923,-0.03,-0.46,-1.26,1.34
1.933,-0.54,-0.61,-1.19,1.44
1.943,-1.19,-0.56,-0.80,1.54
1.953,-1.55,-0.31,-0.57,1.68
1.963,-1.04,0.20,-0.09,1.06
1.974,0.23,0.59,0.20,0.67
1.984,0.98,0.99,0.83,1.62
1.994,0.78,0.97,1.23,1.75
2.004,0.65,0.71,1.32,1.64
2.014,0.45,0.59,1.20,1.41
2.024,0.25,0.59,1.29,1.44
2.034,0.06,0.29,1.33,1.36
2.044,-0.12,0.08,1.43,1.44
2.054,-0.66,0.11,1.34,1.50
2.064,-1.45,-0.10,1.07,1.81
2.074,-2.27,0.22,0.53,2.34
2.084,-3.10,1.30,0.12,3.37
2.094,-3.63,2.45,-0.13,4.38
2.105,-3.63,2.81,0.24,4.60
2.115,-3.25,2.30,0.83,4.06
2.125,-2.68,1.56,1.05,3.27
2.135,-1.97,0.74,1.07,2.36
2.145,-1.28,0.12,1.14,1.72
2.155,-0.88,-0.43,0.98,1.38
2.165,-0.52,-0.43,0.51,0.85
2.175,-0.10,0.09,0.09,0.16
2.185,0.27,0.53,-0.07,0.59
2.195,0.45,0.89,-0.04,0.99
2.205,0.61,0.89,0.08,1.08
2.215,0.57,0.50,0.17,0.78
2.225,0.08,0.12,0.30,0.33
2.235,-0.69,-0.60,0.21,0.94
2.245,-1.31,-0.90,-1.10,1.93
2.255,-1.02,-0.37,-2.76,2.97
2.266,-0.50,0.13,-3.72,3.75
2.276,-0.54,0.16,-3.48,3.52
2.286,-0.82,0.37,-2.31,2.48
2.296,-0.89,1.48,-1.34,2.19
2.306,-1.35,1.78,-1.06,2.48
2.316,-1.74,1.91,-0.43,2.62
2.326,-2.04,2.12,0.16,2.95
2.336,-2.18,2.21,0.46,3.13
2.346,-2.29,1.46,0.81,2.83
2.356,-2.29,0.10,0.84,2.44
2.366,-2.38,-1.76,0.71,3.04
2.376,-1.71,-4.55,0.64,4.90
2.386,-0.80,-6.57,0.86,6.67
2.396,0.95,-6.91,1.20,7.08
2.407,2.78,-6.27,1.51,7.02
2.416,4.53,-5.72,1.44,7.44
2.427,5.68,-4.73,0.67,7.42
2.437,6.44,-3.97,-0.32,7.57
2.447,6.15,-2.45,-1.26,6.74
2.457,4.39,-0.50,-2.15,4.91
2.467,2.46,1.37,-2.79,3.97
2.477,0.72,1.84,-3.48,4.01
2.487,-0.41,0.14,-3.67,3.69
2.497,-0.93,-0.91,-3.31,3.55
2.507,-1.38,-0.75,-2.67,3.10
2.517,-1.84,-0.56,-1.95,2.74
2.527,-2.13,-0.16,-1.27,2.48
2.537,-2.06,0.40,-0.68,2.20
2.547,-1.43,0.84,-0.09,1.66
2.558,-0.52,0.38,0.46,0.79
2.568,0.12,-0.29,0.82,0.88
2.578,0.41,-0.47,0.98,1.16
2.588,0.53,-0.43,1.05,1.25
2.598,0.59,-0.37,1.13,1.33
2.608,0.49,-0.30,1.20,1.33
2.618,0.16,-0.08,1.27,1.29
2.628,-0.24,0.07,1.34,1.37
2.638,-0.83,-0.21,1.38,1.62
2.648,-1.17,-0.54,1.21,1.77
2.658,-1.52,-0.67,0.92,1.90
2.668,-1.79,-0.68,0.54,1.99
2.678,-1.94,-0.60,0.11,2.03
2.689,-1.86,-0.36,-0.35,1.93
2.698,-1.56,-0.16,-0.84,1.78
2.709,-1.20,0.00,-1.22,1.71
2.719,-0.89,0.10,-1.47,1.72
2.729,-0.65,0.10,-1.59,1.72
2.739,-0.41,-0.04,-1.57,1.63
2.749,-0.18,-0.14,-1.47,1.49
2.759,0.03,-0.14,-1.34,1.35
2.769,0.19,-0.05,-1.16,1.18
2.779,0.30,0.02,-1.01,1.05
2.789,0.33,0.05,-0.84,0.90
2.799,0.35,0.06,-0.65,0.74
2.809,0.31,0.11,-0.37,0.50
2.819,0.24,0.16,-0.14,0.32
2.829,0.13,0.24,0.03,0.27
2.840,0.04,0.35,0.11,0.37
2.850,-0.06,0.43,0.17,0.47
2.860,-0.13,0.46,0.23,0.53
2.870,-0.16,0.36,0.30,0.49
2.880,-0.19,0.18,0.32,0.42
2.890,-0.18,0.04,0.27,0.33
2.900,-0.13,0.02,0.17,0.21
2.910,-0.13,0.12,0.09,0.19
2.920,-0.12,0.17,0.03,0.21
2.930,-0.11,0.17,0.04,0.21
2.940,-0.08,0.19,0.05,0.21
2.950,0.08,0.18,0.06,0.21
2.960,0.24,0.10,0.12,0.29
2.971,0.37,0.01,0.08,0.38
2.980,0.44,-0.13,-0.00,0.46
2.991,0.48,-0.14,-0.10,0.51
3.001,0.49,-0.10,-0.18,0.54
3.011,0.48,-0.04,-0.18,0.52
3.021,0.51,0.06,-0.10,0.53
3.031,0.56,0.11,0.04,0.57
3.041,0.63,0.10,0.17,0.66
3.051,0.74,0.06,0.27,0.79
3.061,0.86,-0.02,0.34,0.93
3.071,0.94,-0.07,0.38,1.01
3.081,1.02,-0.13,0.34,1.08
3.091,1.05,-0.19,0.18,1.09
3.101,0.96,-0.16,0.06,0.97
3.111,0.75,-0.08,-0.08,0.76
3.122,0.62,0.00,-0.21,0.66
3.132,0.51,0.04,-0.23,0.57
3.142,0.37,-0.00,-0.22,0.43
3.152,0.31,-0.01,-0.14,0.34
3.162,0.21,-0.01,-0.05,0.22
3.172,0.07,-0.01,0.03,0.08
3.182,-0.01,0.03,0.07,0.08
3.192,-0.16,0.10,0.06,0.20
3.202,-0.30,0.15,0.01,0.34
3.212,-0.41,0.15,-0.08,0.45
3.222,-0.44,0.14,-0.18,0.49
3.232,-0.37,0.10,-0.18,0.42
3.242,-0.27,0.02,-0.14,0.31
3.252,-0.14,-0.06,-0.06,0.17
3.262,-0.02,-0.09,0.08,0.12
3.273,0.14,-0.11,0.21,0.28
3.282,0.28,-0.14,0.19,0.36
3.293,0.41,-0.20,0.08,0.46
3.303,0.52,-0.14,-0.06,0.54
3.313,0.53,-0.15,-0.14,0.57
3.323,0.50,-0.05,-0.15,0.52
3.333,0.50,0.06,-0.10,0.51
3.343,0.41,0.17,-0.04,0.44
3.353,0.41,0.34,0.03,0.53
3.363,0.47,0.45,0.05,0.65
3.373,0.49,0.49,0.05,0.70
3.383,0.39,0.42,0.04,0.58
3.393,0.14,0.24,0.05,0.28
3.403,-0.01,0.12,0.06,0.14
3.413,-0.06,0.07,0.10,0.13
3.424,-0.04,0.02,0.12,0.13
3.434,-0.03,-0.05,0.14,0.15
3.444,-0.09,-0.15,0.12,0.21
3.454,-0.19,-0.15,0.09,0.26
3.464,-0.29,-0.13,0.05,0.32
3.474,-0.34,-0.11,0.00,0.36
3.484,-0.29,-0.03,-0.07,0.30
3.494,-0.29,-0.01,-0.11,0.31
3.504,-0.33,-0.03,-0.11,0.35
3.514,-0.33,-0.01,-0.17,0.37
3.524,-0.27,-0.01,-0.24,0.36
3.534,-0.23,-0.00,-0.34,0.41
3.544,-0.18,0.01,-0.40,0.44
3.555,-0.15,0.04,-0.46,0.49
3.565,-0.09,0.03,-0.52,0.53
3.575,-0.04,0.02,-0.58,0.58
3.585,-0.05,-0.02,-0.61,0.61
3.595,-0.04,-0.05,-0.60,0.60
3.605,-0.06,-0.07,-0.61,0.61
3.615,-0.09,-0.05,-0.58,0.59
3.625,-0.12,-0.03,-0.54,0.55
3.635,-0.14,-0.01,-0.51,0.53
3.645,-0.18,0.01,-0.46,0.49
3.655,-0.23,-0.00,-0.42,0.48
3.665,-0.22,0.02,-0.40,0.46
3.675,-0.25,0.02,-0.35,0.43
3.685,-0.22,0.02,-0.30,0.37
3.695,-0.21,0.05,-0.22,0.31
3.705,-0.21,0.09,-0.14,0.27
3.716,-0.19,0.10,-0.03,0.22
3.726,-0.20,0.12,0.05,0.24
3.736,-0.24,0.14,0.15,0.32
3.746,-0.32,0.07,0.20,0.38
3.756,-0.38,0.07,0.23,0.45
3.766,-0.40,0.07,0.27,0.49
3.776,-0.41,0.06,0.26,0.49
3.786,-0.43,0.02,0.29,0.52
3.796,-0.46,-0.04,0.27,0.53
3.806,-0.48,-0.10,0.26,0.56
3.816,-0.48,-0.14,0.22,0.55
3.826,-0.48,-0.14,0.15,0.52
3.836,-0.46,-0.08,0.07,0.47
3.846,-0.41,0.01,-0.05,0.42
3.857,-0.32,0.04,-0.17,0.37
3.866,-0.18,0.08,-0.28,0.34
3.877,-0.02,0.05,-0.37,0.37
3.887,0.10,0.02,-0.47,0.48
3.897,0.22,0.00,-0.55,0.59
3.907,0.29,0.01,-0.60,0.67
3.917,0.35,0.03,-0.66,0.75
3.927,0.37,0.04,-0.70,0.79
3.937,0.36,0.05,-0.71,0.79
3.947,0.28,0.06,-0.70,0.75
3.957,0.13,0.06,-0.69,0.70
3.967,-0.01,0.06,-0.61,0.61
3.977,-0.16,0.05,-0.55,0.57
3.987,-0.23,0.04,-0.47,0.52
3.997,-0.27,0.05,-0.39,0.48
4.008,-0.28,0.06,-0.30,0.42
4.018,-0.27,0.06,-0.23,0.36
4.028,-0.25,0.06,-0.17,0.30
4.038,-0.21,0.03,-0.12,0.24
4.048,-0.14,0.00,-0.09,0.16
4.058,-0.07,-0.00,-0.06,0.09
4.068,0.00,-0.02,-0.05,0.06
4.078,0.06,-0.03,-0.04,0.08
4.088,0.08,-0.03,-0.01,0.09
4.098,0.06,-0.01,-0.02,0.07
4.108,-0.01,0.03,-0.03,0.04
4.118,-0.06,0.05,-0.02,0.08
4.128,-0.13,0.05,-0.03,0.15
4.139,-0.17,0.01,-0.05,0.18
4.148,-0.18,-0.02,-0.08,0.20
4.159,-0.15,-0.07,-0.08,0.18
4.169,-0.15,-0.10,-0.10,0.21
4.179,-0.16,-0.08,-0.09,0.21
4.189,-0.18,-0.09,-0.07,0.22
4.199,-0.22,-0.04,-0.04,0.23
4.209,-0.29,0.01,-0.01,0.29
4.219,-0.36,0.05,0.03,0.36
4.229,-0.41,0.08,0.06,0.42
4.239,-0.43,0.08,0.08,0.44
4.249,-0.42,0.05,0.08,0.43
4.259,-0.39,0.05,0.11,0.41
4.269,-0.31,0.03,0.12,0.34
4.280,-0.23,-0.00,0.14,0.27
4.290,-0.11,-0.02,0.16,0.20
4.300,-0.02,-0.04,0.17,0.17
4.310,0.05,-0.01,0.16,0.17
4.320,0.11,0.01,0.14,0.18
4.330,0.12,0.04,0.10,0.16
4.340,0.08,0.07,0.07,0.13
4.350,0.03,0.05,0.03,0.07
4.360,-0.00,0.05,0.00,0.05
4.370,-0.05,0.05,-0.04,0.08
4.380,-0.06,0.03,-0.10,0.12
4.390,-0.04,0.03,-0.16,0.17
4.400,0.01,0.05,-0.21,0.21
4.410,0.07,0.06,-0.23,0.25
4.420,0.12,0.12,-0.26,0.31
4.430,0.16,0.22,-0.30,0.40
4.441,0.18,0.26,-0.36,0.48
4.451,0.22,0.24,-0.37,0.49
4.461,0.31,0.08,-0.39,0.50
4.471,0.44,-0.08,-0.45,0.63
4.481,0.55,-0.16,-0.49,0.75
4.491,0.60,-0.14,-0.50,0.79
4.501,0.53,-0.11,-0.47,0.72
4.511,0.36,-0.12,-0.40,0.55
4.521,0.15,-0.09,-0.30,0.35
4.531,-0.06,0.01,-0.23,0.24
4.541,-0.22,0.14,-0.22,0.34
4.551,-0.30,0.24,-0.25,0.46
4.561,-0.34,0.28,-0.28,0.53
4.571,-0.33,0.24,-0.31,0.51
4.581,-0.37,0.14,-0.30,0.50
4.592,-0.34,0.00,-0.27,0.43
4.602,-0.31,-0.13,-0.20,0.39
4.612,-0.30,-0.19,-0.12,0.37
4.622,-0.31,-0.23,-0.05,0.39
4.632,-0.33,-0.26,0.02,0.42
4.642,-0.34,-0.27,0.09,0.44
4.652,-0.30,-0.22,0.14,0.40
4.662,-0.24,-0.14,0.17,0.33
4.672,-0.19,-0.03,0.22,0.29
4.682,-0.14,0.09,0.23,0.29
4.692,-0.09,0.20,0.21,0.30
4.702,-0.04,0.27,0.19,0.33
4.712,0.01,0.24,0.17,0.30
4.722,0.06,0.19,0.17,0.26
4.733,0.07,0.11,0.21,0.25
4.743,0.07,0.02,0.28,0.29
4.753,0.02,-0.05,0.30,0.31
4.763,-0.01,-0.04,0.32,0.32
4.773,-0.07,0.02,0.29,0.30
4.783,-0.10,0.07,0.25,0.27
4.793,-0.11,0.10,0.20,0.25
4.803,-0.09,0.11,0.14,0.20
4.813,-0.06,0.08,0.09,0.14
4.823,-0.02,0.06,0.09,0.11
4.833,-0.03,0.02,0.08,0.08
4.843,-0.05,-0.03,0.08,0.09
4.853,-0.07,-0.07,0.07,0.12
4.864,-0.10,-0.05,0.00,0.12
4.873,-0.13,-0.02,-0.04,0.13
4.884,-0.14,0.01,-0.12,0.18
4.894,-0.20,0.03,-0.15,0.25
4.904,-0.24,0.04,-0.18,0.30
4.914,-0.27,0.01,-0.18,0.32
4.924,-0.29,-0.00,-0.20,0.35
4.934,-0.26,-0.02,-0.23,0.35
4.944,-0.17,-0.04,-0.22,0.28
4.954,-0.02,-0.03,-0.24,0.24
4.964,0.11,-0.02,-0.22,0.25
4.974,0.24,0.03,-0.20,0.31
4.984,0.32,0.10,-0.15,0.37
4.994,0.35,0.15,-0.13,0.40
5.005,0.37,0.18,-0.11,0.43
5.014,0.34,0.14,-0.09,0.38
5.025,0.32,0.09,-0.09,0.35
5.035,0.34,0.08,-0.05,0.35
5.045,0.28,0.06,-0.00,0.29
5.055,0.23,0.05,0.03,0.23
5.065,0.11,0.04,0.09,0.15
5.075,0.03,0.04,0.12,0.13
5.085,-0.03,0.03,0.12,0.13
5.095,-0.14,0.03,0.11,0.18
5.105,-0.21,0.00,0.09,0.23
5.115,-0.24,-0.04,0.07,0.26
5.125,-0.22,-0.08,0.04,0.24
5.135,-0.14,-0.06,-0.01,0.16
5.145,-0.08,0.01,-0.04,0.09
5.155,-0.01,0.09,-0.09,0.13
5.166,0.06,0.14,-0.09,0.18
5.176,0.11,0.19,-0.09,0.23
5.186,0.11,0.18,-0.07,0.22
5.196,0.06,0.13,-0.04,0.15
5.206,0.03,0.09,0.03,0.10
5.216,-0.03,0.07,0.07,0.11
5.226,-0.08,0.07,0.06,0.12
5.236,-0.12,0.07,0.05,0.15
5.246,-0.15,0.06,0.04,0.17
5.256,-0.16,0.02,0.04,0.17
5.266,-0.17,-0.01,0.05,0.18
5.276,-0.14,-0.01,0.03,0.15
5.286,-0.08,-0.06,0.01,0.10
5.296,-0.01,-0.11,-0.06,0.13
5.307,0.06,-0.11,-0.13,0.18
5.316,0.13,-0.00,-0.20,0.24
5.327,0.17,0.11,-0.23,0.30
5.337,0.16,0.13,-0.24,0.32
5.347,0.11,0.10,-0.21,0.26
5.357,0.04,0.08,-0.14,0.17
5.367,-0.02,0.10,-0.08,0.14
5.377,-0.02,0.11,-0.06,0.12
5.387,-0.00,0.07,-0.04,0.08
5.397,0.03,0.03,-0.05,0.07
5.407,0.10,0.04,-0.07,0.12
5.417,0.16,0.07,-0.09,0.20
5.428,0.19,0.12,-0.12,0.26
5.437,0.15,0.15,-0.14,0.25
5.447,0.09,0.11,-0.16,0.22
5.458,0.03,0.01,-0.15,0.16
5.468,0.00,-0.06,-0.15,0.16
5.478,-0.04,-0.09,-0.16,0.19
5.488,-0.04,-0.09,-0.13,0.16
5.498,-0.04,-0.08,-0.13,0.16
5.508,-0.04,-0.07,-0.15,0.17
5.518,-0.04,-0.01,-0.17,0.18
5.528,-0.03,0.08,-0.19,0.21
5.538,-0.03,0.13,-0.22,0.26
5.548,-0.04,0.10,-0.23,0.25
5.558,-0.04,0.06,-0.19,0.21
5.568,-0.03,0.05,-0.13,0.15
5.578,-0.01,0.05,-0.09,0.10
5.589,0.04,0.06,-0.05,0.09
5.598,0.07,0.05,-0.03,0.09
5.609,0.12,0.04,-0.02,0.13
5.619,0.13,0.01,-0.03,0.13
5.629,0.14,0.01,-0.05,0.15
5.639,0.13,0.06,-0.06,0.16
5.649,0.08,0.08,-0.08,0.14
5.659,0.02,0.07,-0.08,0.11
5.669,-0.04,0.05,-0.06,0.09
5.679,-0.09,0.01,-0.03,0.09
5.689,-0.13,-0.02,-0.00,0.13
5.699,-0.14,-0.01,-0.01,0.14
5.709,-0.10,0.01,-0.04,0.11
5.719,-0.06,-0.01,-0.07,0.09
5.730,-0.05,-0.02,-0.11,0.12
5.739,-0.05,-0.04,-0.12,0.14
5.750,-0.02,-0.04,-0.14,0.15
5.760,-0.03,-0.01,-0.13,0.13
5.770,-0.07,0.07,-0.11,0.15
5.780,-0.11,0.14,-0.10,0.20
5.790,-0.14,0.15,-0.08,0.22
5.800,-0.16,0.11,-0.05,0.20
5.810,-0.13,0.05,-0.03,0.15
5.820,-0.08,-0.02,-0.03,0.08
5.830,0.00,-0.06,-0.03,0.07
5.840,0.06,-0.06,-0.01,0.09
5.850,0.08,-0.02,-0.01,0.09
5.860,0.08,0.04,0.01,0.09
5.870,0.05,0.09,0.04,0.11
5.880,0.01,0.08,0.07,0.10
5.891,-0.02,0.05,0.10,0.12
5.900,-0.09,0.04,0.12,0.15
5.911,-0.13,0.02,0.12,0.18
5.921,-0.13,0.02,0.10,0.16
5.931,-0.12,0.02,0.05,0.13
5.941,-0.09,-0.01,-0.02,0.10
5.951,-0.08,0.00,-0.06,0.10
5.961,-0.03,0.04,-0.13,0.14
5.971,-0.01,0.03,-0.15,0.15
5.981,-0.02,0.01,-0.17,0.17
5.991,-0.02,0.02,-0.17,0.17
6.001,0.01,0.05,-0.20,0.20
6.011,0.03,0.02,-0.19,0.20
6.022,0.02,0.01,-0.20,0.20
6.032,0.02,-0.02,-0.20,0.21
6.042,0.04,-0.00,-0.18,0.19
6.052,0.03,0.01,-0.15,0.15
6.062,-0.01,0.05,-0.09,0.11
6.072,-0.05,0.04,-0.06,0.09
6.082,-0.06,0.04,-0.02,0.08
6.092,-0.06,0.04,-0.01,0.07
6.102,-0.04,0.03,0.03,0.05
6.112,-0.03,0.06,0.03,0.07
6.122,-0.03,0.07,0.04,0.09
6.132,-0.00,0.07,0.06,0.09
6.142,-0.00,0.05,0.09,0.10
6.152,-0.02,0.03,0.11,0.12
6.162,-0.05,0.02,0.14,0.15
6.173,-0.04,0.03,0.13,0.14
6.182,-0.02,0.04,0.09,0.10
6.193,0.00,0.06,0.04,0.07
6.203,0.06,0.06,-0.02,0.09
6.213,0.09,0.06,-0.03,0.12
6.223,0.07,0.05,-0.05,0.10
6.233,0.00,0.04,-0.04,0.06
6.243,-0.08,0.03,-0.04,0.09
6.253,-0.13,0.03,-0.06,0.15
6.263,-0.20,0.06,-0.06,0.21
6.273,-0.19,0.10,-0.09,0.23
6.283,-0.14,0.11,-0.13,0.22
6.293,-0.06,0.11,-0.13,0.18
6.303,0.00,0.04,-0.09,0.10
6.314,0.10,-0.02,-0.08,0.13
6.324,0.16,-0.04,-0.06,0.17
6.334,0.18,-0.05,-0.04,0.19
6.344,0.13,-0.05,-0.03,0.14
6.354,0.06,-0.01,-0.02,0.07
6.364,-0.03,0.07,-0.02,0.08
6.374,-0.09,0.16,-0.03,0.18
6.384,-0.16,0.22,-0.06,0.27
6.394,-0.17,0.21,-0.05,0.28
6.404,-0.14,0.18,-0.05,0.23
6.414,-0.05,0.11,-0.02,0.12
6.424,0.04,-0.01,0.03,0.05
6.434,0.10,-0.07,0.05,0.13
6.444,0.13,-0.10,0.11,0.20
6.455,0.11,-0.08,0.14,0.19
6.464,0.07,-0.02,0.13,0.15
6.475,-0.01,0.00,0.07,0.07
6.485,-0.07,-0.02,0.00,0.08
6.495,-0.06,-0.05,-0.09,0.12
6.505,-0.03,-0.07,-0.14,0.15
6.515,0.00,-0.03,-0.16,0.16
6.525,-0.01,0.02,-0.16,0.16
6.535,-0.05,0.12,-0.12,0.17
6.545,-0.10,0.22,-0.11,0.26
6.555,-0.16,0.23,-0.07,0.29
6.565,-0.19,0.19,-0.05,0.27
6.575,-0.18,0.10,-0.05,0.21
6.585,-0.14,0.01,-0.03,0.14
6.595,-0.04,-0.05,-0.01,0.07
6.605,0.04,-0.10,0.02,0.11
6.616,0.06,-0.10,0.06,0.13
6.626,0.08,-0.04,0.09,0.13
6.636,0.08,0.05,0.10,0.14
6.646,0.05,0.14,0.10,0.18
6.656,0.03,0.16,0.07,0.18
6.666,0.02,0.11,0.04,0.12
6.676,0.01,0.03,-0.02,0.04
6.686,0.06,-0.06,-0.05,0.10
6.696,0.11,-0.10,-0.07,0.16
6.706,0.13,-0.09,-0.06,0.17
6.716,0.14,-0.01,-0.06,0.15
6.726,0.11,0.08,-0.02,0.14
6.736,0.04,0.12,-0.02,0.13
6.746,-0.01,0.09,-0.00,0.09
6.757,-0.03,0.05,-0.06,0.08
6.767,-0.01,-0.01,-0.09,0.09
6.777,-0.01,-0.07,-0.14,0.15
6.787,0.00,-0.06,-0.16,0.18
6.797,0.03,-0.06,-0.15,0.17
6.807,0.04,-0.00,-0.16,0.16
6.817,0.02,0.07,-0.17,0.19
6.827,-0.02,0.09,-0.17,0.20
6.837,-0.07,0.07,-0.16,0.19
6.847,-0.10,0.02,-0.13,0.17
6.857,-0.12,0.01,-0.09,0.15
6.867,-0.09,0.01,-0.04,0.10
6.877,-0.04,0.05,-0.01,0.06
6.887,-0.02,0.05,0.07,0.08
6.898,-0.04,0.03,0.14,0.15
6.908,-0.04,0.03,0.19,0.19
6.918,-0.05,0.04,0.22,0.23
6.928,-0.08,0.06,0.22,0.24
6.938,-0.07,0.04,0.19,0.21
6.948,-0.07,0.03,0.15,0.17
6.958,-0.03,-0.00,0.14,0.14
6.968,0.01,-0.01,0.12,0.12
6.978,0.06,0.03,0.07,0.10
6.988,0.08,0.09,0.04,0.13
6.998,0.11,0.10,0.02,0.15
7.008,0.08,0.06,0.01,0.10
7.018,0.03,0.03,-0.03,0.05
7.028,-0.02,0.02,-0.04,0.05
7.039,-0.07,0.03,-0.09,0.11
7.048,-0.08,0.02,-0.13,0.15
7.059,-0.07,0.01,-0.16,0.17
7.069,-0.04,0.00,-0.20,0.20
7.079,0.00,-0.00,-0.20,0.20
7.089,0.01,-0.01,-0.23,0.23
7.099,-0.02,0.02,-0.23,0.23
7.109,-0.01,0.04,-0.21,0.21
7.119,0.01,0.07,-0.16,0.18
7.129,0.06,0.09,-0.11,0.16
7.139,0.12,0.07,-0.08,0.16
7.149,0.13,0.03,-0.04,0.13
7.159,0.08,0.00,0.01,0.08
7.169,0.02,-0.00,0.04,0.05
7.179,-0.03,0.00,0.04,0.05
7.190,-0.07,0.03,0.06,0.10
7.200,-0.11,0.06,0.06,0.14
7.210,-0.12,0.05,0.09,0.16
7.220,-0.11,0.03,0.14,0.19
7.230,-0.07,0.01,0.15,0.17
7.240,-0.03,0.02,0.13,0.13
7.250,-0.00,0.03,0.12,0.13
7.260,0.02,0.04,0.09,0.10
7.270,0.03,0.06,0.06,0.09
7.280,0.04,0.05,0.01,0.07
7.290,0.04,0.04,-0.01,0.06
7.300,0.04,0.04,-0.05,0.08
7.310,-0.00,0.02,-0.08,0.08
7.321,-0.03,0.01,-0.08,0.09
7.330,-0.09,0.01,-0.11,0.14
7.341,-0.11,0.03,-0.11,0.16
7.351,-0.12,0.05,-0.09,0.16
7.361,-0.11,0.05,-0.10,0.16
7.371,-0.04,0.05,-0.10,0.12
7.381,0.03,0.04,-0.10,0.11
7.391,0.09,0.02,-0.08,0.12
7.401,0.12,0.00,-0.05,0.13
7.411,0.15,0.01,-0.03,0.15
7.421,0.13,0.04,0.00,0.13
7.431,0.07,0.05,0.04,0.09
7.441,-0.01,0.05,0.05,0.07
7.451,-0.09,0.03,0.08,0.12
7.462,-0.11,0.03,0.07,0.13
7.472,-0.11,0.05,0.07,0.14
7.482,-0.07,0.03,0.07,0.10
7.492,-0.02,0.05,0.08,0.09
7.501,0.06,0.07,0.06,0.11
7.512,0.08,0.07,0.07,0.13
7.522,0.09,0.06,0.06,0.12
7.532,0.06,0.06,0.03,0.09
7.542,0.04,0.03,0.01,0.05
7.552,-0.01,0.02,-0.05,0.05
7.562,-0.03,0.00,-0.09,0.09
7.572,-0.06,0.00,-0.10,0.11
7.582,-0.07,-0.01,-0.14,0.16
7.592,-0.07,0.00,-0.14,0.15
7.602,-0.07,0.00,-0.10,0.12
7.612,-0.03,0.04,-0.06,0.08
7.623,-0.04,0.10,-0.01,0.11
7.632,-0.04,0.13,0.03,0.14
7.643,-0.02,0.08,0.06,0.11
7.653,-0.01,0.05,0.07,0.09
7.663,0.04,-0.01,0.03,0.06
7.673,0.11,-0.06,0.00,0.13
7.683,0.15,-0.03,-0.04,0.16
7.693,0.17,-0.01,-0.05,0.17
7.703,0.13,0.09,-0.05,0.17
7.713,0.04,0.14,-0.01,0.14
7.723,-0.04,0.13,0.01,0.14
7.733,-0.07,0.04,0.04,0.09
7.743,-0.10,-0.07,0.02,0.13
7.753,-0.07,-0.16,-0.01,0.17
7.763,-0.01,-0.17,-0.03,0.17
7.773,0.06,-0.11,-0.06,0.14
7.784,0.18,-0.04,-0.09,0.20
7.794,0.21,0.02,-0.12,0.24
7.804,0.16,0.07,-0.12,0.21
7.814,0.07,0.14,-0.10,0.19
7.824,-0.01,0.21,-0.09,0.23
7.834,-0.08,0.26,-0.08,0.28
7.844,-0.11,0.24,-0.02,0.27
7.854,-0.10,0.19,0.05,0.22
7.864,-0.06,0.13,0.11,0.18
7.874,0.03,0.02,0.16,0.16
7.884,0.10,-0.05,0.21,0.24
7.894,0.18,-0.09,0.25,0.32
7.905,0.18,-0.05,0.26,0.32
7.915,0.07,0.01,0.28,0.29
7.925,-0.06,0.10,0.30,0.32
7.935,-0.17,0.14,0.27,0.35
7.945,-0.25,0.13,0.26,0.38
7.955,-0.28,0.07,0.19,0.34
7.965,-0.28,-0.02,0.13,0.31
7.975,-0.25,-0.07,0.04,0.26
7.985,-0.18,-0.06,-0.02,0.19
7.995,-0.06,0.03,-0.07,0.10
8.005,0.05,0.12,-0.11,0.16
8.015,0.15,0.19,-0.16,0.29
8.025,0.27,0.19,-0.17,0.37
8.035,0.36,0.16,-0.18,0.43
8.045,0.44,0.08,-0.20,0.49
8.055,0.46,-0.00,-0.20,0.50
8.066,0.41,0.00,-0.22,0.47
8.076,0.37,0.04,-0.23,0.43
8.086,0.33,0.01,-0.26,0.42
8.096,0.30,-0.06,-0.29,0.42
8.106,0.19,-0.13,-0.27,0.35
8.116,-0.00,-0.10,-0.22,0.24
8.126,-0.23,0.01,-0.16,0.28
8.136,-0.39,0.12,-0.18,0.45
8.146,-0.47,0.21,-0.21,0.56
8.156,-0.39,0.23,-0.24,0.51
8.166,-0.23,0.14,-0.28,0.40
8.176,-0.09,0.00,-0.27,0.28
8.186,0.02,-0.11,-0.16,0.20
8.196,0.06,-0.11,-0.06,0.14
8.207,0.01,-0.03,0.08,0.09
8.217,-0.04,0.03,0.17,0.18
8.227,-0.11,0.01,0.23,0.26
8.237,-0.20,-0.02,0.26,0.33
8.247,-0.26,-0.04,0.30,0.40
8.257,-0.33,-0.06,0.34,0.48
8.267,-0.42,-0.03,0.36,0.55
8.277,-0.44,-0.02,0.36,0.57
8.287,-0.45,-0.01,0.36,0.58
8.297,-0.47,0.02,0.35,0.58
8.307,-0.49,0.08,0.33,0.59
8.317,-0.50,0.16,0.27,0.59
8.327,-0.47,0.14,0.21,0.53
8.337,-0.36,0.00,0.13,0.38
8.347,-0.19,-0.14,0.07,0.24
8.358,0.02,-0.23,-0.01,0.23
8.368,0.19,-0.17,-0.04,0.26
8.378,0.31,0.02,-0.05,0.31
8.388,0.34,0.19,-0.07,0.40
8.398,0.39,0.24,-0.08,0.46
8.408,0.41,0.17,-0.11,0.46
8.418,0.39,0.09,-0.16,0.43
8.428,0.35,0.05,-0.21,0.41
8.438,0.32,0.06,-0.25,0.41
8.448,0.29,0.10,-0.27,0.40
8.458,0.27,0.13,-0.25,0.39
8.468,0.30,0.15,-0.20,0.39
8.478,0.31,0.12,-0.16,0.37
8.489,0.30,0.09,-0.11,0.33
8.498,0.24,0.02,-0.06,0.24
8.509,0.15,-0.05,-0.04,0.16
8.519,0.02,-0.06,-0.02,0.07
8.529,-0.09,-0.04,-0.02,0.10
8.539,-0.16,-0.00,-0.02,0.16
8.549,-0.23,0.01,-0.03,0.23
8.559,-0.29,-0.01,-0.01,0.29
8.569,-0.28,-0.03,-0.03,0.29
8.579,-0.24,-0.04,-0.04,0.24
8.589,-0.11,-0.02,-0.08,0.13
8.599,-0.01,0.01,-0.11,0.11
8.609,0.08,0.05,-0.10,0.14
8.619,0.13,0.09,-0.10,0.19
8.629,0.15,0.14,-0.09,0.22
8.639,0.16,0.13,-0.08,0.22
8.650,0.09,0.13,-0.05,0.17
8.660,0.03,0.10,-0.07,0.12
8.670,-0.01,0.05,-0.06,0.08
8.680,-0.05,0.04,-0.03,0.08
8.690,-0.10,0.12,0.00,0.15
8.700,-0.15,0.17,0.06,0.23
8.710,-0.17,0.16,0.11,0.26
8.720,-0.15,0.06,0.17,0.23
8.730,-0.08,-0.11,0.16,0.21
8.740,-0.01,-0.22,0.17,0.27
8.750,0.06,-0.27,0.12,0.31
8.760,0.10,-0.22,0.07,0.25
8.770,0.06,-0.08,0.01,0.10
8.780,-0.02,0.04,-0.06,0.07
8.791,-0.10,0.17,-0.15,0.25
8.801,-0.13,0.20,-0.23,0.33
8.811,-0.11,0.21,-0.27,0.36
8.821,-0.02,0.16,-0.33,0.37
8.831,0.14,0.11,-0.38,0.42
8.841,0.27,0.09,-0.39,0.48
8.851,0.42,0.05,-0.40,0.58
8.861,0.56,0.03,-0.37,0.67
8.871,0.60,0.03,-0.33,0.68
8.881,0.53,0.04,-0.26,0.59
8.891,0.34,0.04,-0.14,0.37
8.901,0.07,0.03,-0.09,0.12
8.911,-0.16,0.03,-0.02,0.17
8.922,-0.32,-0.00,0.03,0.32
8.932,-0.41,-0.03,0.05,0.41
8.942,-0.43,-0.04,0.08,0.44
8.952,-0.42,-0.07,0.10,0.44
8.962,-0.38,-0.09,0.12,0.41
8.972,-0.32,-0.08,0.14,0.36
8.982,-0.27,-0.02,0.18,0.33
8.992,-0.27,0.05,0.23,0.36
9.002,-0.27,0.08,0.29,0.40
9.012,-0.31,0.05,0.35,0.47
9.022,-0.31,0.00,0.37,0.48
9.032,-0.27,-0.02,0.35,0.44
9.042,-0.15,0.02,0.32,0.36
9.052,0.00,0.09,0.26,0.28
9.062,0.16,0.15,0.20,0.30
9.073,0.30,0.21,0.12,0.38
9.082,0.38,0.21,0.06,0.44
9.093,0.46,0.18,-0.01,0.49
9.103,0.47,0.13,-0.09,0.49
9.113,0.46,0.07,-0.17,0.50
9.123,0.34,0.02,-0.25,0.42
9.133,0.20,-0.01,-0.27,0.33
9.143,0.06,-0.02,-0.27,0.28
9.153,-0.07,-0.05,-0.25,0.27
9.163,-0.20,-0.05,-0.20,0.29
9.173,-0.30,-0.07,-0.16,0.35
9.183,-0.35,-0.07,-0.14,0.38
9.193,-0.36,-0.05,-0.13,0.39
9.203,-0.31,-0.04,-0.12,0.34
9.213,-0.20,-0.01,-0.12,0.23
9.224,-0.06,-0.01,-0.12,0.13
9.234,0.06,0.03,-0.08,0.11
9.244,0.15,0.06,-0.03,0.16
9.254,0.18,0.08,0.02,0.20
9.264,0.16,0.10,0.05,0.19
9.274,0.08,0.06,0.06,0.12
9.284,-0.02,0.01,0.05,0.05
9.294,-0.15,-0.06,0.08,0.18
9.304,-0.26,-0.09,0.09,0.29
9.314,-0.29,-0.10,0.14,0.34
9.324,-0.35,-0.06,0.18,0.40
9.334,-0.36,-0.02,0.24,0.43
9.344,-0.36,-0.01,0.27,0.45
9.355,-0.28,-0.00,0.26,0.38
9.364,-0.16,0.00,0.18,0.24
9.375,0.01,0.03,0.06,0.07
9.385,0.16,0.09,-0.04,0.18
9.395,0.25,0.13,-0.09,0.29
9.405,0.28,0.18,-0.11,0.36
9.415,0.24,0.20,-0.06,0.31
9.425,0.17,0.18,-0.03,0.24
9.435,0.10,0.14,0.00,0.17
9.445,0.06,0.07,0.01,0.10
9.455,0.06,0.02,0.00,0.06
9.465,0.11,0.01,-0.02,0.11
9.475,0.17,-0.01,-0.06,0.18
9.485,0.22,0.01,-0.06,0.23
9.495,0.22,0.02,-0.08,0.23
9.506,0.21,0.05,-0.10,0.24
9.516,0.17,0.06,-0.13,0.22
9.526,0.08,0.08,-0.13,0.17
9.536,-0.02,0.06,-0.13,0.14
9.546,-0.09,0.02,-0.11,0.14
9.556,-0.13,-0.00,-0.07,0.15
9.566,-0.13,-0.01,-0.07,0.15
9.576,-0.06,0.02,-0.09,0.11
9.586,0.02,0.02,-0.10,0.10
9.596,0.08,0.03,-0.09,0.13
9.606,0.09,0.04,-0.07,0.12
9.616,0.06,0.04,-0.02,0.08
9.626,0.03,0.03,0.04,0.06
9.636,-0.03,0.03,0.09,0.11
9.646,-0.06,0.06,0.12,0.15
9.657,-0.09,0.06,0.12,0.16
9.666,-0.11,0.05,0.08,0.14
9.677,-0.04,0.04,0.02,0.06
9.687,0.02,0.04,-0.04,0.06
9.697,0.04,0.06,-0.04,0.09
9.707,0.08,0.07,-0.02,0.11
9.717,0.08,0.04,-0.00,0.09
9.727,0.07,0.02,0.05,0.09
9.737,0.05,0.04,0.06,0.08
9.747,0.05,0.06,0.05,0.10
9.757,0.04,0.07,0.00,0.09
9.767,0.07,0.08,-0.06,0.12
9.777,0.10,0.05,-0.06,0.13
9.787,0.10,-0.00,-0.04,0.11
9.797,0.09,-0.03,-0.03,0.10
9.808,0.07,-0.02,-0.04,0.09
9.818,0.03,-0.01,-0.09,0.10
9.828,-0.04,0.02,-0.09,0.10
9.838,-0.13,0.03,-0.11,0.18
9.848,-0.22,0.01,-0.11,0.25
9.858,-0.25,0.01,-0.06,0.26
9.868,-0.21,-0.01,-0.05,0.22
9.878,-0.16,-0.02,-0.05,0.17
9.888,-0.07,0.01,-0.00,0.07
9.898,0.02,0.03,0.04,0.06
9.908,0.05,0.05,0.09,0.11
9.918,0.03,0.06,0.12,0.14
9.928,-0.01,0.07,0.15,0.16
9.938,-0.06,0.06,0.15,0.17
9.948,-0.09,0.05,0.16,0.19
9.959,-0.11,0.03,0.16,0.20
9.969,-0.08,0.01,0.18,0.20
9.979,-0.05,0.02,0.17,0.18
9.989,-0.01,0.03,0.14,0.14
9.999,0.04,0.04,0.11,0.13
10.009,0.07,0.07,0.10,0.14
10.019,0.07,0.07,0.05,0.11
10.029,0.06,0.05,0.05,0.09
10.039,0.02,0.04,0.01,0.05
10.049,0.01,0.05,-0.04,0.06
10.059,0.00,0.07,-0.06,0.09
10.069,0.01,0.06,-0.07,0.10
10.079,-0.01,0.05,-0.05,0.07
10.090,-0.04,0.04,-0.04,0.06
10.100,-0.02,0.01,-0.05,0.05
10.110,0.01,-0.00,-0.09,0.09
10.120,0.05,0.03,-0.14,0.15
10.130,0.12,0.04,-0.17,0.21
10.140,0.13,0.03,-0.17,0.22
10.150,0.11,0.03,-0.17,0.21
10.160,0.11,0.06,-0.15,0.19
10.170,0.06,0.07,-0.11,0.15
10.180,0.01,0.08,-0.06,0.10
10.190,-0.03,0.07,-0.05,0.09
10.200,-0.07,0.06,-0.02,0.09
10.210,-0.04,0.02,-0.01,0.05
10.220,0.01,0.01,-0.00,0.02
10.230,0.03,0.02,0.02,0.04
10.241,0.03,0.02,0.03,0.05
10.251,0.00,0.03,0.01,0.03
10.261,-0.02,0.04,-0.00,0.05
10.271,-0.05,0.05,-0.03,0.08
10.281,-0.09,0.05,-0.03,0.11
10.291,-0.10,0.02,-0.04,0.11
10.301,-0.12,-0.02,-0.02,0.12
10.311,-0.10,-0.06,-0.02,0.12
10.321,-0.06,-0.08,-0.04,0.11
10.331,-0.02,-0.07,-0.00,0.08
10.341,-0.03,0.00,0.01,0.03
10.351,-0.07,0.07,0.03,0.11
10.361,-0.13,0.08,0.05,0.16
10.371,-0.14,0.07,0.08,0.18
10.381,-0.14,0.03,0.10,0.17
10.392,-0.12,0.02,0.06,0.14
10.402,-0.07,0.03,0.05,0.09
10.412,0.00,0.05,-0.01,0.05
10.422,0.04,0.08,-0.05,0.10
10.432,0.05,0.08,-0.05,0.11
10.442,0.06,0.10,-0.03,0.12
10.452,0.08,0.07,0.02,0.11
10.462,0.08,0.03,0.04,0.09
10.472,0.08,0.00,0.04,0.09
10.482,0.05,-0.01,0.02,0.06
10.492,0.02,-0.01,-0.00,0.02
10.503,0.01,0.02,-0.04,0.04
10.512,-0.04,0.02,-0.07,0.09
10.523,-0.08,0.04,-0.10,0.14
10.533,-0.08,0.04,-0.10,0.13
10.543,-0.09,0.03,-0.11,0.15
10.553,-0.02,0.03,-0.09,0.10
10.563,0.04,0.02,-0.09,0.10
10.573,0.07,0.03,-0.04,0.09
10.583,0.08,0.05,-0.02,0.10
10.593,0.08,0.08,0.01,0.11
10.603,0.05,0.09,0.03,0.10
10.613,0.03,0.04,0.04,0.07
10.623,0.01,0.03,0.02,0.04
10.633,0.03,-0.00,-0.00,0.03
10.643,0.07,0.00,-0.02,0.07
10.653,0.05,0.02,-0.02,0.06
10.664,0.04,0.04,-0.01,0.06
10.674,0.00,0.05,-0.00,0.06
10.684,-0.03,0.07,0.02,0.08
10.694,-0.02,0.07,0.01,0.07
10.704,-0.03,0.07,0.01,0.08
10.714,0.02,0.04,-0.00,0.05
10.724,0.04,0.02,-0.04,0.06
10.734,0.09,0.01,-0.03,0.10
10.744,0.14,0.01,-0.05,0.15
10.754,0.14,0.03,-0.03,0.15
10.764,0.13,0.07,-0.02,0.15
10.774,0.06,0.08,0.01,0.10
10.784,-0.01,0.08,0.04,0.09
10.794,-0.04,0.05,0.05,0.09
10.804,-0.06,0.04,0.05,0.09
10.814,-0.04,0.03,0.03,0.06
10.825,0.01,0.00,0.03,0.03
10.835,0.04,-0.00,0.03,0.05
10.845,0.03,0.03,0.03,0.05
10.855,0.02,0.06,0.02,0.07
10.865,-0.02,0.08,0.02,0.09
10.875,-0.03,0.07,0.01,0.08
10.885,-0.04,0.03,0.02,0.06
10.895,-0.02,0.00,-0.01,0.03
10.905,0.01,0.00,-0.03,0.03
10.915,0.05,0.02,-0.04,0.07
10.925,0.09,0.03,-0.06,0.11
10.935,0.08,0.06,-0.06,0.12
10.946,0.06,0.05,-0.06,0.09
10.955,0.03,0.02,-0.05,0.06
10.966,-0.01,0.03,-0.06,0.07
10.976,-0.04,0.05,-0.06,0.09
10.986,-0.06,0.04,-0.03,0.08
10.996,-0.08,0.03,-0.02,0.09
11.006,-0.08,0.02,0.02,0.08
11.016,-0.04,0.01,0.05,0.07
11.026,-0.03,0.01,0.06,0.07
11.036,0.01,0.04,0.07,0.08
11.046,0.03,0.06,0.07,0.10
11.056,0.03,0.08,0.06,0.11
11.066,0.02,0.08,0.06,0.10
11.076,0.04,0.07,0.07,0.11
11.086,0.03,0.07,0.08,0.11
11.096,0.02,0.04,0.07,0.08
11.107,0.01,-0.01,0.04,0.04
11.117,-0.03,-0.02,-0.02,0.04
11.127,-0.08,-0.02,-0.04,0.09
11.137,-0.11,-0.03,-0.06,0.13
11.147,-0.10,-0.01,-0.06,0.11
11.157,-0.11,0.03,-0.05,0.13
11.167,-0.10,0.02,-0.03,0.11
11.177,-0.06,0.07,-0.03,0.09
11.187,-0.05,0.07,-0.05,0.10
11.197,-0.00,0.05,-0.05,0.07
11.207,0.02,0.03,-0.08,0.09
11.217,0.04,0.04,-0.05,0.08
11.227,0.06,0.05,-0.04,0.09
11.237,0.07,0.05,-0.02,0.09
11.248,0.01,0.06,0.03,0.06
11.258,-0.03,0.05,0.05,0.08
11.268,-0.04,0.04,0.08,0.10
11.278,-0.02,0.02,0.10,0.11
11.288,-0.00,0.01,0.09,0.09
11.298,0.04,0.01,0.05,0.07
11.308,0.05,0.03,0.03,0.06
11.318,0.05,0.04,-0.01,0.07
11.328,0.01,0.03,-0.04,0.05
11.338,-0.04,0.07,-0.07,0.10
11.348,-0.06,0.05,-0.08,0.11
11.358,-0.09,0.03,-0.09,0.13
11.368,-0.06,0.02,-0.09,0.11
11.378,-0.01,-0.00,-0.09,0.09
11.388,0.05,0.01,-0.08,0.09
11.398,0.10,0.04,-0.07,0.12
11.409,0.09,0.04,-0.07,0.12
11.419,0.06,0.07,-0.04,0.10
11.429,0.02,0.07,-0.00,0.07
11.439,-0.04,0.03,-0.00,0.05
11.449,-0.06,0.01,0.01,0.07
11.459,-0.09,0.00,0.01,0.09
11.469,-0.05,0.01,0.01,0.06
11.479,-0.06,0.03,-0.01,0.06
11.489,-0.01,0.03,0.02,0.03
11.499,0.01,0.03,0.01,0.03
11.509,0.05,0.02,0.02,0.06
11.519,0.06,0.00,0.00,0.06
11.529,0.05,0.01,-0.02,0.05
11.539,0.01,0.05,-0.03,0.06
11.550,-0.05,0.09,-0.03,0.11
11.560,-0.06,0.09,-0.05,0.12
11.570,-0.07,0.06,-0.01,0.10
11.580,-0.05,0.04,0.02,0.07
11.590,0.00,0.01,0.03,0.04
11.600,0.03,0.04,0.06,0.08
11.610,0.06,0.05,0.05,0.09
11.620,0.07,0.01,0.03,0.08
11.630,0.09,0.00,0.03,0.09
11.640,0.06,-0.01,0.03,0.07
11.650,0.02,0.03,0.03,0.05
11.660,-0.01,0.07,0.04,0.08
11.670,-0.07,0.09,0.05,0.12
11.680,-0.10,0.08,0.07,0.15
11.691,-0.11,0.07,0.08,0.15
11.700,-0.08,0.06,0.07,0.12
11.711,-0.04,0.03,0.04,0.06
11.721,0.03,-0.00,-0.01,0.04
11.731,0.07,-0.05,-0.04,0.09
11.741,0.08,-0.04,-0.07,0.12
11.751,0.10,-0.00,-0.08,0.13
11.761,0.07,0.04,-0.08,0.12
11.771,0.05,0.06,-0.05,0.09
11.781,-0.00,0.07,-0.01,0.07
11.791,-0.05,0.08,0.00,0.09
11.801,-0.07,0.08,0.01,0.11
11.811,-0.06,0.06,0.03,0.09
11.821,-0.04,0.02,0.04,0.06
11.831,-0.00,-0.01,0.04,0.04
11.842,0.03,0.01,0.05,0.06
11.852,0.06,0.04,0.06,0.09
11.862,0.08,0.06,0.04,0.11
11.872,0.06,0.07,0.06,0.11
11.882,-0.01,0.07,0.08,0.10
11.892,-0.07,0.06,0.08,0.12
11.902,-0.08,0.05,0.05,0.10
11.912,-0.05,0.02,0.01,0.05
11.922,-0.05,-0.02,-0.04,0.06
11.932,0.02,-0.02,-0.06,0.07
11.942,0.01,-0.00,-0.07,0.07
11.952,0.01,0.03,-0.05,0.06
11.962,-0.01,0.07,-0.04,0.08
11.972,-0.05,0.07,-0.03,0.09
11.982,-0.06,0.07,-0.02,0.09
11.993,-0.06,0.05,-0.02,0.08
12.003,-0.04,0.01,-0.01,0.04
12.013,0.01,-0.02,0.00,0.02
12.023,0.03,-0.02,0.00,0.03
12.033,0.07,0.01,0.01,0.07
12.043,0.07,0.05,0.03,0.09
12.053,0.02,0.07,0.02,0.08
12.063,-0.01,0.09,0.04,0.10
12.073,-0.03,0.05,0.05,0.08
12.083,-0.06,0.01,0.06,0.09
12.093,-0.04,0.01,0.06,0.08
12.103,-0.03,-0.00,0.01,0.03
12.114,-0.01,-0.02,-0.04,0.04
12.123,-0.01,0.00,-0.09,0.09
12.134,-0.01,0.04,-0.11,0.11
12.144,-0.01,0.05,-0.12,0.13
12.154,-0.00,0.05,-0.07,0.09
12.164,0.00,0.05,-0.05,0.06
12.174,0.01,0.03,-0.03,0.05
12.184,0.03,0.01,-0.01,0.03
12.194,0.03,0.01,-0.01,0.03
12.204,0.07,0.01,-0.03,0.07
12.214,0.06,0.02,-0.01,0.06
12.224,0.02,0.03,0.01,0.03
12.234,-0.03,0.02,0.04,0.06
12.244,-0.07,0.02,0.05,0.09
12.254,-0.08,0.05,0.04,0.10
12.265,-0.10,0.06,0.02,0.12
12.275,-0.06,0.07,0.01,0.09
12.285,-0.04,0.04,0.01,0.05
12.295,0.01,0.01,0.00,0.01
12.305,0.07,0.01,-0.01,0.08
12.315,0.12,0.03,-0.01,0.12
12.325,0.11,0.03,-0.00,0.11
12.335,0.02,0.04,-0.01,0.05
12.345,-0.03,0.02,-0.01,0.04
12.355,-0.10,0.02,-0.04,0.11
12.365,-0.11,0.01,-0.06,0.13
12.375,-0.09,0.03,-0.02,0.10
12.385,-0.06,0.04,-0.01,0.08
12.395,-0.01,0.04,-0.01,0.04
12.405,0.04,0.05,-0.00,0.07
12.416,0.07,0.04,0.01,0.08
12.426,0.09,0.05,0.05,0.11
12.436,0.03,0.03,0.08,0.09
12.446,-0.01,0.01,0.11,0.11
12.456,-0.06,0.03,0.09,0.12
12.466,-0.07,0.04,0.10,0.13
12.476,-0.08,0.06,0.08,0.13
12.486,-0.07,0.07,0.05,0.11
12.496,-0.04,0.07,0.08,0.11
12.506,-0.01,0.03,0.09,0.10
12.516,0.03,-0.00,0.08,0.09
12.526,0.04,0.00,0.07,0.08
12.536,0.04,0.00,0.05,0.06
12.546,0.03,0.04,0.03,0.05
12.557,0.00,0.04,0.00,0.04
12.566,-0.03,0.04,-0.01,0.05
12.577,-0.04,0.05,0.00,0.07
12.587,-0.05,0.05,0.00,0.07
12.597,-0.04,0.02,-0.01,0.05
12.607,-0.03,0.02,-0.02,0.04
12.617,0.02,0.02,-0.06,0.07
12.627,0.06,0.02,-0.07,0.09
12.637,0.07,0.04,-0.05,0.09
12.647,0.05,0.05,-0.03,0.08
12.657,0.02,0.06,0.02,0.06
12.667,-0.02,0.05,0.05,0.07
12.677,-0.06,0.05,0.05,0.09
12.687,-0.06,0.05,0.05,0.09
12.698,-0.04,0.04,0.03,0.07
12.707,-0.02,0.01,0.02,0.03
12.718,0.02,-0.00,0.01,0.02
12.728,0.04,0.00,0.03,0.05
12.738,0.06,0.02,0.03,0.07
12.748,0.03,0.06,0.06,0.09
12.758,0.01,0.05,0.08,0.10
12.768,-0.01,0.04,0.06,0.07
12.778,0.00,0.00,0.05,0.05
12.788,0.04,0.01,0.01,0.04
12.798,0.05,0.03,-0.04,0.07
12.808,0.03,0.05,-0.05,0.07
12.818,-0.02,0.01,-0.05,0.05
12.828,-0.10,-0.02,-0.01,0.10
12.838,-0.19,-0.02,0.03,0.19
12.848,-0.25,0.03,0.06,0.26
12.859,-0.28,0.09,0.10,0.31
12.869,-0.21,0.11,0.07,0.25
12.879,-0.12,0.11,0.10,0.19
12.889,0.03,0.08,0.09,0.12
12.899,0.15,0.05,0.08,0.18
12.909,0.26,0.03,0.07,0.28
12.919,0.31,0.02,0.04,0.31
12.929,0.32,0.01,-0.03,0.32
12.939,0.31,0.00,-0.09,0.32
12.949,0.28,-0.02,-0.13,0.31
12.959,0.18,-0.03,-0.16,0.24
12.969,0.06,-0.01,-0.14,0.15
12.979,-0.08,-0.00,-0.13,0.15
12.990,-0.17,0.02,-0.12,0.21
13.000,-0.26,0.04,-0.11,0.28
13.010,-0.27,0.03,-0.08,0.29
13.020,-0.22,0.03,-0.08,0.24
13.030,-0.14,0.04,-0.06,0.16
13.040,-0.03,0.05,-0.05,0.07
13.050,0.06,0.07,-0.05,0.10
13.060,0.15,0.05,-0.02,0.16
13.070,0.21,0.02,0.01,0.21
13.080,0.19,0.00,0.05,0.20
13.090,0.13,0.02,0.09,0.16
13.100,0.04,0.01,0.09,0.10
13.110,-0.04,0.00,0.09,0.10
13.120,-0.11,-0.02,0.08,0.13
13.130,-0.13,-0.01,0.07,0.15
13.141,-0.15,0.01,0.05,0.16
13.151,-0.14,0.02,0.03,0.14
13.161,-0.10,0.07,0.03,0.12
13.171,-0.04,0.09,0.00,0.10
13.181,0.01,0.09,-0.03,0.09
13.191,0.05,0.08,-0.03,0.10
13.201,0.07,0.06,-0.06,0.11
13.211,0.09,0.04,-0.07,0.13
13.221,0.09,0.02,-0.09,0.13
13.231,0.07,0.02,-0.09,0.12
13.241,0.02,0.05,-0.09,0.10
13.251,0.00,0.04,-0.06,0.07
13.261,-0.02,0.03,-0.05,0.06
13.271,-0.05,0.01,-0.01,0.05
13.282,-0.07,0.01,-0.01,0.07
13.291,-0.07,-0.00,-0.01,0.07
13.302,-0.03,0.01,0.01,0.03
13.312,0.01,0.04,0.00,0.04
13.322,0.02,0.08,-0.01,0.08
13.332,0.03,0.10,-0.03,0.11
13.342,0.06,0.11,-0.01,0.13
13.352,0.05,0.09,0.00,0.11
13.362,0.04,0.00,0.01,0.04
13.372,0.05,-0.06,0.02,0.08
13.382,0.05,-0.06,-0.03,0.08
13.392,0.02,0.00,-0.07,0.07
13.402,-0.04,0.05,-0.06,0.09
13.412,-0.11,0.08,-0.05,0.14
13.423,-0.13,0.07,-0.03,0.15
13.432,-0.15,0.06,0.02,0.16
13.443,-0.14,0.03,0.04,0.15
13.453,-0.10,0.05,0.03,0.12
13.463,-0.05,0.06,0.02,0.08
13.473,0.02,0.05,0.01,0.06
13.483,0.09,0.07,0.00,0.11
13.493,0.14,0.09,0.03,0.17
13.503,0.15,0.08,0.04,0.18
13.513,0.09,0.05,0.05,0.11
13.523,0.00,0.01,0.07,0.07
13.533,-0.06,-0.01,0.06,0.08
13.543,-0.09,-0.01,0.04,0.10
13.553,-0.07,0.01,0.02,0.07
13.563,-0.06,0.01,0.00,0.06
13.574,-0.01,0.04,0.00,0.05
13.584,0.02,0.04,0.02,0.05
13.594,0.00,0.03,-0.01,0.03
13.604,-0.00,0.02,-0.01,0.02
13.614,-0.01,0.02,-0.03,0.04
13.624,-0.05,0.02,-0.02,0.05
13.634,-0.06,0.01,-0.03,0.07
13.644,-0.05,0.04,-0.00,0.07
13.654,-0.05,0.05,-0.00,0.07
13.664,-0.04,0.05,0.02,0.07
13.674,0.01,0.07,0.01,0.07
13.684,0.04,0.06,0.01,0.07
13.694,0.06,0.07,0.03,0.10
13.705,0.07,0.04,0.05,0.09
13.714,0.07,0.04,0.07,0.10
13.725,0.07,0.02,0.09,0.11
13.734,0.05,-0.00,0.07,0.09
13.745,0.04,-0.01,0.03,0.06
13.755,0.04,-0.00,-0.01,0.04
13.765,0.01,0.01,-0.05,0.06
13.775,0.00,0.03,-0.08,0.08
13.785,-0.02,0.03,-0.07,0.08
13.795,-0.01,0.07,-0.07,0.10
13.805,-0.01,0.08,-0.06,0.10
13.815,-0.00,0.07,-0.05,0.09
13.825,0.01,0.04,-0.03,0.05
13.835,0.02,0.04,-0.04,0.06
13.845,0.01,0.03,-0.02,0.03
13.855,0.01,0.01,-0.02,0.03
13.866,-0.01,0.03,-0.02,0.04
13.875,-0.02,0.06,0.00,0.06
13.886,-0.03,0.03,0.02,0.05
13.896,-0.02,-0.00,0.04,0.05
13.906,-0.01,-0.01,0.09,0.09
13.916,-0.01,0.01,0.11,0.11
13.926,-0.01,0.03,0.12,0.13
13.936,-0.03,0.06,0.10,0.12
13.946,-0.05,0.05,0.08,0.11
13.956,-0.05,0.01,0.05,0.07
13.966,-0.04,0.01,0.01,0.04
13.976,-0.02,0.04,0.00,0.05
13.986,0.02,0.08,0.02,0.08
13.996,0.02,0.08,0.01,0.08
14.007,0.03,0.05,0.00,0.06
14.016,0.04,0.04,-0.01,0.06
14.027,0.03,0.03,-0.05,0.06
14.037,0.02,0.05,-0.03,0.06
14.047,0.00,0.04,-0.06,0.07
14.057,-0.00,0.04,-0.05,0.07
14.067,0.03,0.04,-0.04,0.06
14.077,0.06,0.02,-0.04,0.08
14.087,0.09,0.02,-0.05,0.11
14.097,0.11,0.00,-0.06,0.12
14.107,0.06,-0.00,-0.07,0.09
14.117,-0.01,0.01,-0.06,0.06
14.127,-0.07,0.01,-0.06,0.09
14.137,-0.09,0.02,-0.04,0.10
14.148,-0.08,0.04,0.02,0.10
14.158,-0.06,0.08,0.04,0.10
14.168,-0.01,0.07,0.05,0.09
14.178,0.05,0.06,0.07,0.10
14.188,0.07,0.05,0.06,0.11
14.198,0.07,0.02,0.04,0.09
14.208,0.05,0.02,0.04,0.07
14.218,0.00,0.02,0.03,0.03
14.228,-0.05,0.04,0.02,0.07
14.238,-0.08,0.04,0.04,0.09
14.248,-0.07,0.05,0.04,0.10
14.258,-0.07,0.06,0.03,0.10
14.268,-0.04,0.04,0.04,0.07
14.279,-0.03,0.04,0.05,0.07
14.289,-0.01,0.06,0.04,0.07
14.299,0.00,0.04,0.01,0.04
14.309,0.00,0.03,0.00,0.03
14.319,-0.02,0.03,-0.03,0.05
14.329,-0.04,0.01,-0.07,0.08
14.339,-0.02,0.01,-0.08,0.09
14.349,0.03,-0.03,-0.11,0.12
14.359,0.08,-0.01,-0.12,0.15
14.369,0.13,0.01,-0.11,0.17
14.379,0.14,0.03,-0.06,0.15
14.389,0.09,0.03,0.02,0.10
14.399,0.01,0.05,0.08,0.10
14.409,-0.07,0.06,0.12,0.15
14.419,-0.13,0.04,0.13,0.19
14.429,-0.16,0.04,0.11,0.20
14.439,-0.15,0.03,0.06,0.17
14.450,-0.12,0.03,0.02,0.12
14.460,-0.05,0.05,0.01,0.07
14.470,0.01,0.06,-0.01,0.06
14.480,0.01,0.05,0.00,0.06
14.490,0.03,0.04,0.02,0.05
14.500,0.02,0.03,0.01,0.04
14.510,0.01,0.06,-0.01,0.06
14.520,0.02,0.10,-0.03,0.11
14.530,-0.02,0.09,-0.06,0.10
14.540,-0.01,0.07,-0.06,0.10
14.550,0.01,0.04,-0.05,0.06
14.560,0.01,0.01,-0.07,0.07
14.570,0.03,-0.02,-0.09,0.09
14.581,0.05,-0.01,-0.10,0.11
14.591,0.05,-0.02,-0.11,0.12
14.601,0.00,-0.01,-0.12,0.12
14.611,-0.04,0.00,-0.10,0.11
14.621,-0.07,0.02,-0.10,0.12
14.631,-0.08,0.05,-0.10,0.14
14.641,-0.07,0.08,-0.08,0.13
14.651,-0.01,0.09,-0.04,0.10
14.661,0.05,0.07,0.02,0.09
14.671,0.11,0.04,0.04,0.13
14.681,0.14,0.04,0.07,0.16
14.691,0.12,0.03,0.06,0.13
14.701,0.05,0.02,0.05,0.07
14.711,0.01,0.00,0.02,0.02
14.721,-0.03,0.00,-0.02,0.04
14.731,-0.07,-0.01,-0.04,0.08
14.742,-0.14,-0.00,-0.01,0.14
14.752,-0.16,0.01,-0.01,0.16
14.762,-0.16,0.01,0.00,0.16
14.772,-0.13,0.02,0.02,0.13
14.782,-0.07,0.01,0.02,0.07
14.792,0.01,0.01,0.01,0.02
14.802,0.04,0.02,-0.00,0.05
14.812,0.07,0.03,0.01,0.08
14.822,0.08,0.06,0.01,0.10
14.832,0.07,0.08,0.01,0.11
14.842,0.06,0.07,0.01,0.09
14.852,0.03,0.05,0.02,0.06
14.862,-0.01,0.02,0.03,0.04
14.872,-0.01,0.03,0.02,0.04
14.882,-0.00,0.03,0.01,0.03
14.893,0.01,0.04,0.01,0.04
14.903,0.04,0.04,-0.00,0.05
14.913,0.07,0.02,0.00,0.08
14.923,0.09,0.02,-0.01,0.09
14.933,0.09,0.02,-0.01,0.09
14.943,0.11,0.04,-0.01,0.12
14.953,0.09,0.06,0.01,0.11
14.963,0.04,0.07,0.01,0.08
14.973,0.01,0.07,0.02,0.08
14.983,-0.03,0.07,0.03,0.08
14.993,-0.04,0.08,0.03,0.09
15.003,-0.03,0.06,0.01,0.06
15.014,-0.01,0.02,-0.01,0.02
15.024,0.02,-0.01,-0.01,0.03
15.034,0.06,-0.01,-0.00,0.06
15.044,0.09,0.01,-0.00,0.09
15.054,0.08,0.03,0.01,0.09
15.064,0.01,0.05,0.04,0.07
15.074,-0.04,0.06,0.09,0.11
15.084,-0.07,0.07,0.12,0.16
15.094,-0.06,0.05,0.14,0.16
15.104,-0.04,0.01,0.10,0.11
15.114,-0.02,0.01,0.07,0.07
15.124,0.02,0.01,-0.00,0.02
15.134,0.04,0.04,-0.06,0.09
15.144,0.05,0.05,-0.08,0.11
15.154,0.02,0.06,-0.06,0.09
15.164,-0.01,0.04,-0.02,0.05
15.175,-0.06,0.03,0.00,0.07
15.185,-0.08,0.05,0.02,0.09
15.195,-0.07,0.05,0.02,0.09
15.205,-0.04,0.05,0.00,0.06
15.215,0.01,0.04,-0.02,0.04
15.225,0.08,0.01,-0.03,0.09
15.235,0.09,0.00,-0.05,0.10
15.245,0.07,0.02,-0.05,0.09
15.255,0.04,0.05,-0.02,0.07
15.265,-0.00,0.06,-0.01,0.06
15.275,-0.04,0.06,0.02,0.08
15.285,-0.04,0.05,0.02,0.07
15.295,-0.03,0.04,0.00,0.05
15.305,-0.03,0.03,-0.02,0.05
15.316,-0.05,-0.00,-0.01,0.05
15.326,-0.04,0.00,-0.03,0.05
15.336,-0.02,0.01,-0.03,0.03
15.346,-0.01,0.01,-0.03,0.03
15.356,-0.01,0.02,-0.02,0.03
15.366,-0.01,0.02,-0.03,0.04
15.376,-0.01,0.04,-0.02,0.05
15.386,0.01,0.05,-0.01,0.05
15.396,0.01,0.04,0.02,0.05
15.406,-0.00,0.06,0.05,0.07
15.416,-0.02,0.06,0.06,0.09
15.426,-0.03,0.07,0.06,0.10
15.436,-0.02,0.06,0.06,0.09
15.446,0.00,0.05,0.06,0.08
15.457,0.04,0.04,0.05,0.08
15.466,0.04,0.04,0.05,0.07
15.477,0.05,0.03,0.05,0.08
15.487,0.07,0.04,0.06,0.10
15.497,0.07,0.04,0.04,0.09
15.507,0.07,0.05,0.03,0.09
15.517,0.05,0.05,0.02,0.07
15.527,0.01,0.04,0.01,0.05
15.537,-0.02,0.04,-0.01,0.04
15.547,-0.03,0.04,-0.03,0.06
15.557,-0.05,0.04,-0.06,0.09
15.567,-0.04,0.02,-0.09,0.10
15.577,-0.02,0.01,-0.10,0.10
15.587,-0.01,0.01,-0.09,0.10
15.598,-0.04,0.01,-0.09,0.10
15.608,-0.03,0.03,-0.08,0.09
15.618,0.00,0.03,-0.05,0.06
15.628,0.03,0.03,-0.03,0.05
15.638,0.03,0.03,-0.02,0.05
15.648,0.05,0.03,0.00,0.05
15.658,0.07,0.04,-0.00,0.08
15.668,0.08,0.04,0.01,0.09
15.678,0.06,0.06,-0.00,0.09
15.688,0.03,0.06,0.02,0.07
15.698,0.01,0.07,-0.02,0.07
15.708,-0.00,0.05,-0.04,0.06
15.718,-0.02,0.03,-0.06,0.07
15.728,-0.02,0.02,-0.07,0.08
15.738,-0.03,0.03,-0.10,0.11
15.748,-0.03,0.03,-0.09,0.10
15.759,-0.01,0.05,-0.06,0.08
15.769,0.00,0.06,-0.05,0.08
15.779,0.03,0.03,-0.04,0.06
15.789,0.05,0.02,0.01,0.05
15.799,0.04,0.03,0.02,0.06
15.809,0.01,0.06,0.03,0.06
15.819,-0.02,0.06,0.02,0.07
15.829,-0.03,0.04,0.01,0.05
15.839,-0.04,0.02,-0.02,0.05
15.849,-0.03,0.01,-0.04,0.05
15.859,-0.04,0.00,-0.05,0.07
15.869,-0.03,0.02,-0.06,0.07
15.879,-0.02,0.05,-0.06,0.08
15.889,-0.00,0.06,-0.04,0.07
15.900,0.02,0.08,-0.00,0.08
15.910,0.04,0.06,0.00,0.07
15.920,0.08,0.05,0.01,0.10
15.930,0.09,0.02,0.00,0.09
15.940,0.06,0.00,-0.01,0.07
15.950,0.03,0.00,-0.02,0.04
15.960,-0.01,0.05,-0.02,0.05
15.970,-0.04,0.05,-0.01,0.06
15.980,-0.09,0.06,0.01,0.10
15.990,-0.10,0.04,0.05,0.12
16.000,-0.10,0.06,0.07,0.13
16.010,-0.04,0.04,0.08,0.10
16.021,-0.00,0.02,0.07,0.07
16.030,0.03,0.01,0.07,0.08
16.041,0.04,0.02,0.04,0.06
16.051,0.03,0.02,0.02,0.04
16.061,-0.02,0.03,0.00,0.04
16.071,-0.08,0.01,0.02,0.09
16.081,-0.14,-0.01,0.03,0.15
16.091,-0.17,-0.00,0.04,0.18
16.101,-0.20,-0.01,0.08,0.21
16.111,-0.20,0.00,0.07,0.21
16.121,-0.16,0.01,0.05,0.17
16.131,-0.09,0.02,0.02,0.10
16.141,0.00,0.03,-0.03,0.05
16.151,0.10,0.05,-0.06,0.12
16.161,0.17,0.08,-0.09,0.21
16.172,0.20,0.09,-0.11,0.25
16.182,0.21,0.08,-0.10,0.25
16.192,0.19,0.06,-0.09,0.22
16.202,0.16,0.08,-0.07,0.19
16.212,0.10,0.08,-0.09,0.16
16.222,0.08,0.07,-0.08,0.13
16.232,0.05,0.05,-0.07,0.10
16.242,0.01,0.04,-0.06,0.07
16.252,0.01,0.04,-0.03,0.05
16.262,0.00,0.02,-0.01,0.02
16.272,-0.02,0.02,0.02,0.03
16.282,-0.01,0.05,0.04,0.06
16.292,-0.03,0.05,0.05,0.08
16.302,-0.04,0.05,0.05,0.08
16.312,-0.04,0.03,0.05,0.07
16.323,-0.02,0.01,0.05,0.06
16.332,-0.04,0.01,0.03,0.05
16.343,-0.03,-0.00,-0.00,0.03
16.353,-0.04,-0.00,-0.05,0.06
16.363,-0.05,0.02,-0.08,0.10
16.373,-0.04,0.05,-0.10,0.12
16.383,-0.03,0.07,-0.11,0.14
16.393,-0.05,0.05,-0.10,0.12
16.403,-0.02,-0.01,-0.09,0.10
16.413,0.03,-0.03,-0.08,0.09
16.423,0.08,-0.00,-0.06,0.10
16.433,0.10,0.07,-0.05,0.14
16.443,0.08,0.10,-0.00,0.13
16.453,0.04,0.08,0.04,0.10
16.463,-0.00,0.06,0.06,0.08
16.473,-0.06,0.04,0.08,0.11
16.484,-0.09,0.03,0.06,0.11
16.494,-0.07,0.02,0.03,0.08
16.504,-0.03,0.03,-0.02,0.05
16.514,0.05,0.06,-0.04,0.09
16.524,0.10,0.08,-0.02,0.12
16.534,0.13,0.04,-0.02,0.14
16.544,0.13,0.04,0.00,0.14
16.554,0.09,0.04,0.02,0.10
16.564,0.04,0.03,0.01,0.05
16.574,-0.01,0.01,-0.01,0.01
16.584,-0.07,-0.00,-0.00,0.07
16.594,-0.10,0.00,-0.02,0.10
16.604,-0.11,0.01,-0.02,0.11
16.615,-0.11,0.03,-0.03,0.12
16.625,-0.08,0.05,-0.05,0.10
16.635,-0.05,0.06,-0.04,0.09
16.645,-0.06,0.04,-0.02,0.07
16.655,-0.06,0.04,-0.02,0.08
16.665,-0.04,0.03,0.02,0.05
16.675,-0.03,0.03,0.04,0.06
16.685,-0.01,0.01,0.06,0.06
16.695,0.00,0.00,0.06,0.06
16.705,0.03,0.05,0.06,0.08
16.715,0.06,0.08,0.06,0.12
16.725,0.07,0.07,0.08,0.13
16.735,0.05,0.06,0.08,0.12
16.746,-0.00,0.05,0.09,0.10
16.755,-0.07,0.05,0.09,0.12
16.766,-0.07,0.04,0.03,0.09
16.776,-0.09,0.01,0.01,0.09
16.786,-0.08,-0.00,-0.04,0.09
16.796,-0.04,0.00,-0.07,0.08
16.806,-0.02,-0.01,-0.08,0.08
16.816,0.02,-0.00,-0.06,0.06
16.826,0.03,0.01,-0.06,0.07
16.836,0.02,0.01,-0.02,0.03
16.846,0.01,0.02,-0.01,0.02
16.856,-0.01,0.04,-0.01,0.05
16.866,-0.01,0.04,0.00,0.04
16.876,0.00,0.05,-0.01,0.05
16.886,0.02,0.05,-0.03,0.06
16.896,0.04,0.06,-0.03,0.08
16.907,0.04,0.07,0.01,0.08
16.917,0.05,0.08,0.03,0.09
16.927,0.03,0.07,0.06,0.10
16.937,0.04,0.04,0.08,0.10
16.947,-0.00,0.02,0.09,0.09
16.957,-0.00,-0.01,0.09,0.09
16.967,-0.02,-0.01,0.08,0.09
16.977,0.02,0.02,0.05,0.06
16.987,0.03,0.05,0.02,0.06
16.997,0.03,0.06,-0.03,0.07
17.007,0.02,0.09,-0.03,0.10
17.017,-0.02,0.07,-0.04,0.09
17.027,-0.01,-0.00,-0.05,0.05
17.037,-0.01,-0.07,-0.05,0.08
17.048,-0.06,-0.06,-0.07,0.11
17.058,-0.10,-0.03,-0.07,0.12
17.068,-0.11,0.03,-0.01,0.11
17.078,-0.15,0.04,0.05,0.16
17.088,-0.13,0.05,0.07,0.16
17.098,-0.11,0.05,0.11,0.17
17.108,-0.07,0.04,0.09,0.12
17.118,-0.01,0.03,0.08,0.08
17.128,0.05,0.01,0.06,0.08
17.138,0.06,0.02,0.04,0.08
17.148,0.07,0.05,0.03,0.09
17.158,0.08,0.11,0.04,0.14
17.168,0.08,0.11,0.07,0.15
17.178,0.04,0.08,0.08,0.12
17.189,0.02,0.03,0.09,0.10
17.199,-0.00,-0.00,0.09,0.09
17.209,-0.01,0.00,0.06,0.07
17.219,0.02,-0.03,0.03,0.04
17.229,0.04,-0.01,-0.03,0.05
17.239,0.06,0.03,-0.06,0.08
17.249,0.06,0.06,-0.07,0.11
17.259,0.03,0.07,-0.08,0.11
17.269,-0.01,0.05,-0.07,0.08
17.279,-0.03,0.01,-0.05,0.06
17.289,-0.06,0.01,-0.03,0.07
17.299,-0.08,0.02,-0.02,0.08
17.309,-0.07,0.05,-0.04,0.09
17.319,-0.05,0.04,-0.03,0.08
17.329,-0.04,0.05,-0.02,0.07
17.340,-0.01,0.02,-0.01,0.03
17.350,-0.02,-0.01,0.02,0.03
17.360,-0.04,-0.01,0.03,0.06
17.370,-0.08,-0.02,0.04,0.09
17.380,-0.11,0.00,0.05,0.12
17.390,-0.13,0.02,0.05,0.15
17.400,-0.15,0.06,0.06,0.17
17.410,-0.12,0.05,0.05,0.14
17.420,-0.04,0.03,0.06,0.08
17.430,0.04,0.02,0.05,0.07
17.440,0.12,0.04,0.02,0.13
17.450,0.18,0.06,0.00,0.19
17.460,0.20,0.08,-0.03,0.21
17.471,0.18,0.09,-0.04,0.21
17.480,0.12,0.08,-0.02,0.15
17.491,-0.00,0.04,-0.02,0.04
17.501,-0.10,0.04,-0.04,0.11
17.511,-0.16,0.02,-0.01,0.16
17.521,-0.18,0.04,-0.03,0.19
17.531,-0.15,0.01,-0.02,0.15
17.541,-0.09,0.01,-0.03,0.10
17.551,-0.00,-0.00,-0.02,0.02
17.561,0.05,0.02,-0.01,0.05
17.571,0.08,0.00,0.01,0.08
17.581,0.08,0.00,0.02,0.09
17.591,0.08,0.01,0.02,0.08
17.601,0.01,0.01,0.03,0.03
17.611,-0.03,0.04,0.02,0.06
17.621,-0.09,0.07,0.01,0.11
17.632,-0.14,0.08,0.02,0.16
17.642,-0.12,0.05,0.03,0.14
17.652,-0.07,0.01,0.00,0.07
17.662,0.02,-0.01,-0.02,0.03
17.672,0.10,-0.00,-0.05,0.11
17.682,0.17,0.03,-0.05,0.18
17.692,0.19,0.05,-0.04,0.20
17.702,0.14,0.08,-0.04,0.17
17.712,0.07,0.08,-0.01,0.11
17.722,-0.01,0.06,0.02,0.06
17.732,-0.05,0.05,0.03,0.08
17.742,-0.07,0.02,0.02,0.07
17.752,-0.03,0.02,0.02,0.04
17.762,0.04,0.02,0.01,0.04
17.773,0.10,0.02,0.02,0.10
17.783,0.14,0.05,0.01,0.15
17.793,0.11,0.06,0.01,0.12
17.803,0.01,0.05,0.00,0.05
17.813,-0.07,0.02,0.00,0.07
17.823,-0.10,0.02,-0.02,0.10
17.833,-0.11,0.03,-0.02,0.12
17.843,-0.09,0.03,0.01,0.09
17.853,-0.02,0.03,0.01,0.04
17.863,0.06,0.05,0.03,0.08
17.873,0.07,0.08,0.07,0.13
17.883,0.06,0.05,0.09,0.12
17.893,-0.01,0.03,0.07,0.08
17.904,-0.09,0.01,0.09,0.13
17.914,-0.14,-0.00,0.08,0.16
17.923,-0.19,0.01,0.07,0.20
17.934,-0.20,0.02,0.06,0.21
17.944,-0.16,0.03,0.07,0.17
17.954,-0.08,0.03,0.07,0.11
17.964,-0.03,0.04,0.05,0.07
17.974,0.02,0.05,0.04,0.07
17.984,0.05,0.04,0.05,0.09
17.994,0.06,0.03,-0.00,0.07
18.004,0.05,0.01,-0.01,0.05
18.014,0.02,0.00,-0.03,0.04
18.024,0.01,0.03,-0.04,0.05
18.034,-0.01,0.03,-0.06,0.07
18.044,-0.02,0.04,-0.07,0.09
18.054,-0.03,0.05,-0.09,0.10
18.065,-0.03,0.04,-0.09,0.11
18.075,-0.01,0.03,-0.10,0.11
18.085,0.03,0.00,-0.10,0.10
18.095,0.03,0.01,-0.08,0.08
18.105,0.01,0.03,-0.03,0.04
18.115,-0.02,0.03,0.02,0.04
18.125,-0.06,0.05,0.06,0.09
18.135,-0.06,0.05,0.08,0.11
18.145,-0.05,0.06,0.09,0.12
18.155,-0.04,0.05,0.08,0.10
18.165,-0.01,0.03,0.06,0.07
18.175,0.02,0.02,0.06,0.06
18.185,0.04,0.01,0.04,0.06
18.195,0.05,0.02,0.04,0.07
18.205,0.03,0.03,0.05,0.06
18.216,0.00,0.04,0.01,0.05
18.226,-0.04,0.07,0.02,0.08
18.236,-0.08,0.06,0.02,0.10
18.246,-0.12,0.03,0.02,0.12
18.256,-0.06,-0.00,0.02,0.07
18.266,-0.01,-0.01,0.01,0.02
18.276,0.04,0.02,-0.03,0.05
18.286,0.05,0.04,-0.05,0.08
18.296,0.03,0.06,-0.06,0.09
18.306,-0.01,0.04,-0.06,0.08
18.316,-0.06,0.02,-0.06,0.08
18.326,-0.07,0.01,-0.05,0.09
18.336,-0.09,0.03,-0.04,0.10
18.347,-0.08,0.05,-0.03,0.10
18.357,-0.02,0.06,-0.00,0.06
18.366,0.05,0.06,0.05,0.09
18.377,0.12,0.05,0.07,0.15
18.387,0.15,0.07,0.10,0.19
18.397,0.13,0.04,0.07,0.16
18.407,0.10,0.01,0.05,0.11
18.417,0.03,0.00,0.00,0.03
18.427,-0.06,0.00,-0.04,0.07
18.437,-0.12,0.02,-0.07,0.14
18.447,-0.15,0.05,-0.08,0.18
18.457,-0.12,0.05,-0.09,0.16
18.467,-0.05,0.06,-0.08,0.11
18.477,0.03,0.05,-0.04,0.07
18.487,0.09,0.05,-0.03,0.11
18.498,0.11,0.05,-0.03,0.12
18.508,0.10,0.04,-0.01,0.11
18.518,0.04,0.04,-0.02,0.06
18.528,0.01,0.03,-0.02,0.03
18.538,-0.02,0.04,0.01,0.05
18.548,-0.03,0.03,0.01,0.04
18.558,0.00,0.03,0.02,0.04
18.568,0.00,0.04,0.01,0.04
18.578,0.02,0.07,0.02,0.08
18.588,0.04,0.09,0.02,0.10
18.598,0.03,0.07,0.04,0.09
18.608,0.05,0.02,0.07,0.09
18.618,0.04,0.00,0.09,0.10
18.628,0.03,0.00,0.08,0.08
18.639,0.01,0.01,0.05,0.05
18.649,-0.02,0.03,0.04,0.05
18.659,-0.04,0.04,-0.01,0.06
18.669,-0.05,0.06,-0.05,0.10
18.679,-0.10,0.04,-0.03,0.11
18.689,-0.10,0.04,-0.03,0.11
18.699,-0.08,0.04,-0.01,0.09
18.709,-0.07,0.03,0.01,0.08
18.719,-0.02,0.03,-0.01,0.04
18.729,0.04,0.04,-0.02,0.06
18.739,0.07,0.03,-0.02,0.08
18.749,0.05,0.03,-0.03,0.07
18.759,0.03,0.03,-0.04,0.06
18.769,0.01,0.05,-0.02,0.06
18.779,-0.02,0.04,-0.01,0.05
18.790,-0.03,0.02,-0.01,0.04
18.800,-0.03,-0.00,0.00,0.03
18.810,0.01,-0.01,0.01,0.02
18.820,0.01,0.00,0.01,0.02
18.830,0.01,0.04,0.00,0.05
18.840,-0.01,0.08,-0.01,0.08
18.850,-0.02,0.06,-0.02,0.07
18.860,0.00,0.04,-0.02,0.05
18.870,0.04,0.04,-0.02,0.06
18.880,0.07,0.01,-0.04,0.08
18.890,0.08,0.02,-0.04,0.09
18.900,0.06,0.02,-0.04,0.08
18.910,0.02,0.02,0.00,0.03
18.920,-0.01,0.04,0.01,0.04
18.930,-0.05,0.03,0.05,0.08
18.941,-0.09,0.04,0.03,0.10
18.951,-0.10,0.04,0.04,0.11
18.961,-0.07,0.05,0.02,0.09
18.971,-0.04,0.03,0.02,0.05
18.981,0.03,0.01,0.02,0.04
18.991,0.07,0.05,0.03,0.09
19.001,0.09,0.04,0.01,0.10
19.011,0.08,0.03,-0.02,0.09
19.021,0.02,0.04,-0.04,0.06
19.031,-0.06,0.02,-0.05,0.08
19.041,-0.12,0.02,-0.05,0.13
19.051,-0.13,0.02,-0.03,0.14
19.061,-0.11,0.00,-0.02,0.11
19.071,-0.05,0.00,-0.02,0.05
19.082,0.01,0.02,-0.01,0.03
19.092,0.07,0.05,0.00,0.09
19.102,0.05,0.06,0.02,0.08
19.112,0.03,0.05,0.02,0.06
19.122,0.00,0.03,0.02,0.04
19.132,-0.04,0.03,0.05,0.07
19.142,-0.07,0.04,0.05,0.09
19.152,-0.06,0.05,0.04,0.09
19.162,-0.04,0.04,0.02,0.06
19.172,-0.02,0.03,0.03,0.04
19.182,0.00,0.02,0.01,0.03
19.192,0.03,0.05,0.00,0.06
19.202,0.06,0.08,-0.02,0.10
19.212,0.10,0.07,-0.03,0.12
19.222,0.06,0.04,-0.02,0.07
19.232,0.03,0.02,-0.00,0.03
19.243,-0.01,0.02,-0.00,0.02
19.253,-0.07,0.01,-0.00,0.07
19.263,-0.10,-0.01,-0.02,0.10
19.273,-0.13,-0.02,-0.04,0.14
19.283,-0.11,0.00,-0.05,0.12
19.293,-0.05,0.01,-0.05,0.07
19.303,-0.00,0.02,-0.06,0.07
19.313,0.02,0.03,-0.03,0.05
19.323,0.01,0.05,-0.01,0.05
19.333,0.02,0.06,0.03,0.07
19.343,-0.01,0.05,0.04,0.07
19.353,-0.01,0.04,0.06,0.07
19.363,-0.01,0.05,0.03,0.06
19.373,-0.01,0.05,0.01,0.05
19.384,-0.00,0.04,-0.02,0.04
19.394,0.01,0.02,-0.05,0.06
19.404,0.03,0.02,-0.05,0.06
19.414,0.04,0.03,-0.03,0.05
19.424,0.01,0.04,0.01,0.05
19.434,-0.01,0.04,0.03,0.06
19.444,-0.04,0.06,0.04,0.08
19.454,-0.06,0.05,0.05,0.10
19.464,-0.04,0.03,0.02,0.06
19.474,-0.02,0.01,0.02,0.03
19.484,0.02,0.03,0.00,0.03
19.494,0.02,0.04,0.00,0.04
19.505,0.01,0.04,-0.00,0.04
19.514,-0.02,0.03,0.01,0.04
19.525,-0.03,0.04,0.01,0.05
19.534,-0.01,0.08,0.00,0.08
19.545,0.02,0.08,-0.02,0.09
19.555,0.04,0.07,-0.02,0.09
19.565,0.08,0.06,0.00,0.10
19.575,0.12,0.03,0.05,0.13
19.585,0.12,0.03,0.06,0.13
19.595,0.11,0.00,0.04,0.12
19.605,0.05,-0.01,0.02,0.06
19.615,-0.01,-0.00,-0.01,0.01
19.625,-0.08,0.00,-0.05,0.09
19.635,-0.13,0.03,-0.05,0.15
19.645,-0.12,0.04,-0.05,0.14
19.655,-0.09,0.05,-0.02,0.11
19.665,-0.01,0.06,0.03,0.06
19.676,0.09,0.05,0.06,0.12
19.686,0.16,0.08,0.05,0.19
19.696,0.18,0.07,0.01,0.20
19.706,0.14,0.06,-0.02,0.16
19.716,0.04,0.03,-0.03,0.06
19.726,-0.02,0.00,-0.06,0.06
19.736,-0.07,0.02,-0.03,0.08
19.746,-0.07,0.04,-0.01,0.08
19.756,-0.05,0.06,0.00,0.07
19.766,-0.03,0.06,0.02,0.07
19.776,0.02,0.08,0.02,0.08
19.786,0.07,0.08,0.03,0.11
19.796,0.06,0.06,0.02,0.09
19.807,0.06,0.05,0.02,0.08
19.817,0.03,0.02,0.02,0.04
19.827,0.01,-0.01,0.01,0.01
19.837,0.01,-0.01,0.00,0.01
19.847,-0.01,-0.00,-0.01,0.01
19.857,-0.05,0.01,-0.01,0.05
19.867,-0.12,-0.01,-0.02,0.12
19.877,-0.14,0.01,-0.04,0.14
19.887,-0.13,0.04,-0.05,0.15
19.897,-0.09,0.05,-0.09,0.14
19.907,-0.02,0.02,-0.10,0.11
19.917,0.05,0.03,-0.11,0.13
19.927,0.12,0.03,-0.11,0.17
19.937,0.16,0.05,-0.09,0.19
19.948,0.16,0.06,-0.08,0.19
19.958,0.11,0.06,-0.03,0.13
19.968,0.04,0.07,0.01,0.08
19.978,-0.04,0.04,0.03,0.07
19.988,-0.06,0.02,0.04,0.07
19.998,-0.04,0.01,0.06,0.07
20.008,-0.01,-0.01,0.05,0.05
20.018,0.01,0.03,0.03,0.04
20.028,0.03,0.06,0.02,0.07
20.038,0.02,0.05,0.03,0.06
20.048,0.00,0.03,0.00,0.03
20.058,0.00,0.01,0.00,0.01
20.068,0.02,0.03,-0.02,0.04
20.078,-0.01,0.05,-0.04,0.07
20.089,0.01,0.06,-0.04,0.07
20.099,0.02,0.02,-0.05,0.05
20.109,0.03,0.00,-0.04,0.05
20.119,-0.01,0.01,-0.02,0.03
20.129,-0.03,0.05,-0.02,0.07
20.139,-0.05,0.06,-0.01,0.08
20.149,-0.07,0.06,-0.01,0.09
20.159,-0.06,0.04,0.02,0.08
20.169,-0.01,0.05,0.03,0.06
20.179,0.04,0.05,0.05,0.08
20.189,0.06,0.03,0.05,0.09
20.199,0.04,0.01,0.03,0.06
20.209,0.01,-0.00,-0.01,0.02
20.219,-0.04,0.02,-0.02,0.05
20.230,-0.07,0.04,-0.03,0.09
20.239,-0.08,0.02,-0.04,0.09
20.250,-0.06,0.03,-0.04,0.08
20.260,-0.01,0.02,-0.04,0.05
20.270,0.00,0.00,-0.04,0.04
20.280,0.03,0.04,-0.03,0.06
20.290,0.04,0.06,-0.03,0.08
20.300,0.00,0.05,-0.03,0.06
20.310,-0.06,0.05,-0.02,0.08
20.320,-0.10,0.05,-0.01,0.11
20.330,-0.11,0.03,0.02,0.12
20.340,-0.11,0.02,0.04,0.12
20.350,-0.08,0.02,0.04,0.09
20.360,-0.05,0.04,0.05,0.08
20.370,0.02,0.04,0.05,0.07
20.380,0.04,0.05,0.03,0.07
20.391,0.03,0.06,0.04,0.08
20.401,0.04,0.04,0.03,0.07
20.411,0.05,0.02,0.01,0.05
20.421,0.02,0.01,-0.01,0.03
20.431,-0.02,0.02,-0.04,0.05
20.441,-0.04,0.04,-0.03,0.07
20.451,-0.07,0.03,-0.04,0.08
20.461,-0.09,0.03,-0.05,0.11
20.471,-0.06,0.05,-0.04,0.09
20.481,-0.02,0.06,-0.04,0.08
20.491,0.02,0.05,-0.04,0.07
20.501,0.07,0.04,-0.06,0.10
20.511,0.11,0.03,-0.05,0.12
20.521,0.11,0.03,-0.05,0.12
20.532,0.06,0.03,-0.02,0.07
20.542,-0.01,0.05,-0.00,0.05
20.552,-0.07,0.04,0.01,0.08
20.562,-0.12,0.02,0.02,0.12
20.572,-0.10,0.02,0.01,0.11
20.582,-0.06,0.02,0.02,0.06
20.592,-0.01,0.03,0.04,0.05
20.602,0.04,0.06,0.05,0.09
20.612,0.06,0.06,0.07,0.11
20.622,0.07,0.05,0.06,0.11
20.632,0.06,0.03,0.06,0.09
20.642,0.03,0.02,0.01,0.04
20.652,-0.00,0.05,-0.05,0.07
20.662,-0.03,0.07,-0.05,0.09
20.672,-0.02,0.06,-0.07,0.09
20.682,-0.04,0.03,-0.06,0.08
20.693,-0.02,-0.00,-0.04,0.04
20.703,0.00,0.02,-0.01,0.03
20.713,0.01,0.03,-0.00,0.03
20.723,-0.00,0.06,0.02,0.06
20.733,0.02,0.06,0.01,0.07
20.743,0.07,0.05,0.04,0.09
20.753,0.07,0.05,0.05,0.10
20.763,0.03,0.05,0.08,0.10
20.773,-0.01,0.04,0.06,0.07
20.783,-0.06,0.02,0.03,0.07
20.793,-0.07,0.00,0.01,0.07
20.803,-0.07,-0.03,-0.04,0.09
20.813,-0.05,-0.02,-0.05,0.08
20.824,-0.02,-0.01,-0.04,0.05
20.834,-0.02,-0.01,-0.01,0.02
20.844,-0.00,0.04,0.00,0.04
20.854,-0.01,0.08,0.02,0.08
20.864,-0.01,0.11,0.00,0.11
20.874,-0.00,0.10,-0.01,0.10
20.884,-0.01,0.06,0.00,0.06
20.894,0.02,0.02,-0.03,0.04
20.904,0.03,0.02,-0.04,0.06
20.914,0.03,-0.01,-0.04,0.06
20.924,0.03,0.01,-0.02,0.03
20.934,0.02,0.05,0.02,0.06
20.944,0.00,0.11,0.04,0.12
20.954,0.01,0.16,0.05,0.16
20.964,-0.01,0.11,0.07,0.14
20.975,-0.01,0.05,0.08,0.10
20.985,-0.00,0.00,0.08,0.08
20.995,0.03,-0.04,0.05,0.07
21.005,0.05,-0.07,0.01,0.08
21.015,0.05,-0.04,-0.04,0.08
21.025,0.06,-0.01,-0.13,0.14
21.035,0.05,0.03,-0.17,0.18
21.045,0.01,0.05,-0.23,0.23
21.055,-0.01,0.06,-0.26,0.27
21.065,-0.06,0.04,-0.27,0.28
21.075,-0.07,0.03,-0.22,0.24
21.085,-0.05,0.01,-0.16,0.16
21.096,0.00,0.00,-0.10,0.10
21.106,0.05,0.02,-0.03,0.06
21.116,0.08,0.08,0.02,0.11
21.126,0.11,0.11,0.09,0.18
21.136,0.11,0.10,0.13,0.19
21.146,0.10,0.06,0.19,0.22
21.156,0.06,0.03,0.23,0.24
21.166,0.01,0.01,0.23,0.23
21.176,0.00,0.03,0.23,0.23
21.186,-0.01,0.04,0.22,0.23
21.196,-0.05,0.04,0.21,0.22
21.206,-0.07,0.01,0.19,0.20
21.216,-0.09,0.00,0.16,0.19
21.226,-0.09,0.01,0.15,0.17
21.236,-0.09,0.03,0.09,0.14
21.246,-0.09,0.02,0.06,0.11
21.257,-0.08,0.02,0.04,0.09
21.267,-0.09,0.01,-0.01,0.09
21.277,-0.07,0.03,-0.07,0.11
21.287,-0.06,0.05,-0.10,0.12
21.297,-0.04,0.05,-0.14,0.15
21.307,0.00,0.05,-0.17,0.17
21.317,0.10,0.06,-0.17,0.21
21.327,0.18,0.04,-0.15,0.24
21.337,0.25,0.04,-0.13,0.29
21.347,0.22,0.04,-0.11,0.25
21.357,0.15,0.01,-0.07,0.17
21.367,0.05,0.01,-0.04,0.06
21.378,-0.09,-0.01,-0.02,0.09
21.387,-0.16,0.00,0.03,0.17
21.398,-0.19,0.01,0.05,0.19
21.408,-0.16,0.03,0.07,0.17
21.418,-0.05,0.05,0.09,0.11
21.428,0.07,0.07,0.09,0.14
21.438,0.17,0.07,0.08,0.21
21.448,0.21,0.08,0.05,0.23
21.458,0.19,0.05,0.03,0.20
21.468,0.13,0.03,0.03,0.13
21.478,0.04,0.01,0.03,0.05
21.488,-0.05,0.02,0.01,0.06
21.498,-0.09,0.01,0.04,0.10
21.508,-0.09,0.05,0.06,0.12
21.518,-0.09,0.08,0.08,0.14
21.528,-0.06,0.09,0.06,0.13
21.539,-0.05,0.05,0.01,0.07
21.548,-0.05,0.02,-0.04,0.06
21.559,-0.01,-0.04,-0.08,0.09
21.569,0.02,-0.03,-0.13,0.14
21.579,0.06,0.01,-0.17,0.18
21.589,0.09,0.02,-0.15,0.18
21.599,0.09,0.05,-0.11,0.15
21.609,0.04,0.08,-0.06,0.11
21.619,0.02,0.09,-0.02,0.09
21.629,-0.00,0.10,0.03,0.11
21.639,-0.02,0.04,0.06,0.08
21.649,-0.02,-0.01,0.05,0.06
21.659,-0.01,-0.04,0.02,0.05
21.669,-0.01,-0.03,0.01,0.03
21.679,0.01,0.02,0.03,0.04
21.689,0.01,0.02,0.04,0.05
21.700,-0.06,0.05,0.02,0.08
21.710,-0.08,0.08,0.07,0.13
21.720,-0.10,0.09,0.09,0.16
21.730,-0.08,0.05,0.09,0.13
21.740,-0.03,0.02,0.07,0.08
21.750,-0.01,0.02,0.04,0.04
21.760,0.00,0.02,0.03,0.04
21.770,0.03,0.04,-0.01,0.06
21.780,0.04,0.04,-0.02,0.06
21.790,0.03,-0.08,-0.02,0.09
21.800,0.04,-0.05,-0.03,0.07
21.810,0.16,0.05,-0.02,0.17
21.820,0.12,-0.01,-0.09,0.15
21.830,0.14,0.09,-0.14,0.22
21.841,0.19,0.07,-0.14,0.24
21.851,0.15,-0.04,-0.15,0.22
21.861,0.12,0.13,-0.15,0.23
21.871,0.12,0.29,-0.11,0.33
21.881,0.06,0.16,-0.06,0.19
21.891,-0.03,0.02,0.03,0.05
21.901,-0.02,0.05,0.12,0.13
21.911,0.00,0.08,0.19,0.20
21.921,0.03,0.14,0.25,0.29
21.931,0.04,0.08,0.30,0.31
21.941,-0.03,-0.02,0.33,0.33
21.951,-0.11,-0.08,0.32,0.34
21.961,-0.13,-0.00,0.31,0.33
21.971,-0.15,-0.01,0.31,0.34
21.982,-0.20,-0.06,0.31,0.37
21.992,-0.26,-0.07,0.27,0.38
22.002,-0.37,-0.10,0.21,0.44
22.012,-0.47,-0.10,0.14,0.50
22.022,-0.56,-0.16,0.09,0.59
22.032,-0.56,-0.09,-0.08,0.57
22.042,-0.47,-0.01,-0.20,0.51
22.052,-0.34,0.02,-0.29,0.45
22.062,-0.20,0.01,-0.38,0.43
22.072,-0.03,0.02,-0.42,0.42
22.082,0.12,0.00,-0.44,0.46
22.092,0.22,-0.03,-0.38,0.44
22.102,0.27,-0.04,-0.29,0.40
22.112,0.26,0.02,-0.21,0.34
22.122,0.22,0.08,-0.17,0.29
22.133,0.24,0.10,-0.11,0.28
22.143,0.19,0.10,-0.03,0.22
22.153,0.15,0.07,0.04,0.17
22.163,0.09,0.03,0.10,0.14
22.173,0.09,0.01,0.13,0.15
22.183,0.08,0.08,0.16,0.19
22.193,0.10,0.19,0.19,0.29
22.203,0.07,0.14,0.19,0.24
22.213,0.06,0.04,0.17,0.19
22.223,0.07,-0.03,0.13,0.15
22.233,0.10,-0.01,0.10,0.14
22.243,0.15,-0.02,0.08,0.17
22.253,0.18,-0.00,0.05,0.19
22.263,0.23,0.11,0.03,0.26
22.274,0.16,0.10,0.06,0.20
22.284,0.04,0.01,0.07,0.08
22.294,-0.10,0.04,-0.04,0.12
22.304,-0.12,0.11,-0.13,0.21
22.314,-0.06,0.07,-0.11,0.14
22.324,-0.01,0.03,-0.16,0.16
22.334,0.16,0.10,-0.15,0.24
22.344,0.22,0.06,-0.15,0.27
22.354,0.26,0.06,-0.13,0.29
22.364,0.20,0.10,-0.12,0.26
22.374,0.11,0.11,-0.10,0.18
22.384,0.03,0.04,-0.09,0.10
22.394,-0.00,-0.05,-0.09,0.10
22.404,-0.06,-0.03,-0.07,0.09
22.415,-0.04,-0.00,-0.02,0.05
22.425,-0.01,0.07,-0.03,0.08
22.435,0.06,0.12,0.03,0.14
22.445,0.08,0.14,0.05,0.17
22.455,0.06,0.03,0.07,0.10
22.465,-0.03,-0.08,0.07,0.12
22.475,-0.08,-0.13,0.06,0.17
22.485,-0.08,-0.06,0.10,0.14
22.495,-0.06,0.06,0.18,0.20
22.505,-0.02,0.15,0.26,0.29
22.515,0.02,0.14,0.33,0.36
22.525,0.04,0.06,0.33,0.34
22.535,0.06,-0.05,0.31,0.32
22.545,0.07,-0.13,0.29,0.33
22.555,0.13,-0.06,0.29,0.32
22.566,0.11,0.09,0.31,0.34
22.576,0.04,0.12,0.26,0.29
22.586,-0.02,0.07,0.23,0.24
22.596,-0.11,-0.06,0.19,0.23
22.606,-0.22,-0.15,0.21,0.33
22.616,-0.35,-0.13,0.24,0.45
22.626,-0.59,-0.15,0.18,0.63
22.636,-0.74,-0.10,0.03,0.75
22.646,-0.73,-0.02,-0.23,0.76
22.656,-0.64,-0.03,-0.45,0.78
22.666,-0.50,-0.02,-0.60,0.78
22.676,-0.33,-0.06,-0.71,0.79
22.686,-0.15,-0.12,-0.76,0.79
22.696,0.01,-0.13,-0.69,0.71
22.707,0.03,-0.10,-0.53,0.54
22.716,0.04,-0.11,-0.37,0.39
22.727,0.06,-0.17,-0.31,0.35
22.737,0.12,-0.17,-0.31,0.38
22.747,0.19,-0.08,-0.39,0.44
22.757,0.27,0.09,-0.42,0.51
22.767,0.27,0.14,-0.42,0.51
22.777,0.23,0.07,-0.40,0.47
22.787,0.14,0.04,-0.32,0.36
22.797,0.08,0.18,-0.10,0.22
22.807,0.09,0.46,0.17,0.50
22.817,0.15,0.74,0.44,0.87
22.827,0.22,0.87,0.64,1.11
22.837,0.36,1.58,0.55,1.71
22.848,0.57,1.94,0.49,2.08
22.858,0.75,0.14,0.57,0.95
22.868,0.85,-0.12,0.70,1.11
22.878,0.69,-0.91,1.08,1.57
22.888,0.36,-1.31,1.13,1.77
22.898,-0.00,-1.25,0.87,1.52
22.908,-0.25,-0.80,0.35,0.91
22.918,-0.46,-0.38,-0.13,0.61
22.928,-0.63,-0.02,-0.40,0.75
22.938,-0.75,0.36,-0.45,0.94
22.948,-0.78,0.52,-0.33,1.00
22.958,-0.76,0.43,-0.17,0.90
22.968,-0.65,0.15,-0.02,0.67
22.978,-0.49,-0.09,0.04,0.50
22.989,-0.35,-0.22,0.06,0.42
22.998,-0.25,-0.40,-0.01,0.47
23.009,-0.19,-0.46,-0.10,0.51
23.019,-0.10,-0.28,-0.08,0.31
23.029,-0.04,0.04,-0.09,0.11
23.039,-0.04,0.35,-0.00,0.35
23.049,-0.02,0.53,0.11,0.54
23.059,-0.00,0.57,0.21,0.61
23.069,0.01,0.49,0.26,0.55
23.079,0.04,0.37,0.26,0.45
23.089,0.10,0.22,0.16,0.29
23.099,0.25,0.15,0.01,0.29
23.109,0.46,0.02,-0.09,0.47
23.119,0.68,-0.08,-0.17,0.70
23.129,0.86,-0.17,-0.14,0.89
23.139,1.06,-0.17,-0.05,1.08
23.150,1.13,-0.26,0.01,1.16
23.160,1.00,-0.38,0.08,1.07
23.170,0.78,-0.38,0.27,0.91
23.180,0.46,-0.35,0.44,0.73
23.190,0.17,-0.20,0.63,0.68
23.200,-0.09,-0.04,0.66,0.66
23.210,-0.43,0.09,0.46,0.64
23.220,-0.76,0.29,0.30,0.86
23.230,-1.04,0.95,0.40,1.47
23.240,-1.26,0.74,0.39,1.51
23.250,-1.32,0.09,0.31,1.36
23.260,-1.24,-0.55,0.24,1.38
23.271,-1.14,-1.29,0.24,1.74
23.281,-1.04,-1.14,0.23,1.57
23.291,-0.72,-0.21,0.55,0.94
23.301,-0.40,0.49,1.01,1.19
23.311,-0.30,0.48,1.22,1.35
23.321,-0.33,0.29,1.21,1.29
23.331,-0.61,0.26,0.87,1.09
23.341,-1.15,0.74,0.53,1.46
23.351,-1.25,1.28,0.27,1.81
23.361,-0.83,0.10,-0.38,0.92
23.371,-0.30,-1.03,-0.87,1.38
23.381,0.01,-1.33,-1.03,1.68
23.391,0.20,-1.33,-1.22,1.82
23.401,0.72,-1.08,-1.42,1.92
23.411,1.21,-0.83,-1.61,2.18
23.421,1.45,-0.46,-1.92,2.45
23.432,1.51,-0.07,-2.06,2.55
23.442,1.28,0.02,-1.98,2.36
23.452,0.95,0.10,-1.79,2.03
23.462,0.52,-0.06,-1.72,1.80
23.472,0.02,-0.41,-1.71,1.76
23.482,-0.06,-0.29,-1.38,1.42
23.492,-0.18,-0.31,-0.96,1.03
23.502,-0.08,-0.00,-0.24,0.25
23.512,0.01,0.18,0.23,0.29
23.522,0.17,0.47,0.59,0.77
23.532,0.43,0.50,0.65,0.92
23.542,0.58,0.16,0.25,0.65
23.552,0.89,0.46,0.14,1.01
23.562,1.12,0.55,0.00,1.25
23.573,1.25,0.46,-0.34,1.37
23.582,1.69,0.37,-0.65,1.84
23.593,1.98,-0.12,-0.67,2.10
23.603,1.92,-0.82,-0.26,2.10
23.613,1.48,-1.28,0.46,2.01
23.623,0.91,-1.29,1.41,2.11
23.633,0.26,-1.23,2.41,2.72
23.643,-0.30,-1.08,3.40,3.58
23.653,-0.86,-1.19,3.84,4.12
23.663,-1.24,-1.59,3.52,4.06
23.673,-1.34,-1.79,3.12,3.84
23.683,-1.03,-1.49,2.67,3.22
23.693,-0.77,-0.91,1.52,1.93
23.703,-0.48,-0.67,0.10,0.83
23.713,-0.38,-0.69,-1.30,1.53
23.723,-0.31,-0.65,-2.27,2.38
23.734,-0.13,-0.83,-2.85,2.97
23.744,0.08,-0.94,-3.10,3.24
23.754,0.25,-0.72,-3.06,3.16
23.764,0.38,-0.54,-2.75,2.83
23.774,0.32,-0.46,-2.27,2.34
23.784,0.16,-0.29,-1.68,1.71
23.794,0.11,-0.43,-0.90,1.00
23.804,0.16,-0.71,-0.04,0.72
23.814,0.20,-0.76,0.80,1.12
23.824,0.20,-0.94,1.24,1.56
23.834,0.00,-0.90,1.27,1.56
23.844,-0.26,-0.42,1.10,1.21
23.854,-0.52,-0.21,0.95,1.11
23.864,-0.86,-0.30,0.92,1.30
23.875,-1.48,-0.93,0.86,1.95
23.885,-1.99,-1.56,0.53,2.58
23.895,-2.02,-1.45,-0.05,2.48
23.905,-1.82,-1.48,-0.31,2.37
23.915,-1.58,-1.44,-0.43,2.18
23.925,-1.43,-1.11,-0.44,1.86
23.935,-1.36,-0.75,-0.20,1.56
23.945,-1.48,-0.66,0.00,1.62
23.955,-1.64,-0.63,0.13,1.77
23.965,-1.63,-0.59,0.49,1.80
23.975,-1.58,-0.85,0.98,2.04
23.985,-1.53,-1.05,1.08,2.15
23.995,-1.48,-1.10,1.05,2.12
24.005,-1.43,-0.70,0.94,1.85
24.016,-1.54,-0.25,0.61,1.67
24.026,-1.76,0.16,0.16,1.77
24.036,-1.79,1.00,-0.04,2.05
24.046,-1.09,1.62,-0.10,1.96
24.056,-0.14,1.99,0.10,1.99
24.066,0.62,1.71,0.33,1.85
24.076,1.12,1.36,1.00,2.03
24.086,1.43,1.12,2.76,3.30
24.096,0.55,-0.47,2.74,2.83
24.106,-0.74,-1.22,1.40,1.99
24.116,-0.60,-0.89,0.37,1.13
24.126,0.60,-0.56,-0.03,0.82
24.136,1.88,-0.22,-0.06,1.90
24.146,2.76,0.50,0.27,2.82
24.157,3.17,0.84,0.67,3.34
24.167,2.76,0.37,-0.21,2.79
24.177,2.11,0.80,-1.52,2.72
24.187,1.64,1.41,-2.17,3.06
24.197,1.01,1.62,-2.01,2.77
24.207,0.40,1.83,-1.48,2.39
24.217,-0.36,1.81,-0.84,2.03
24.227,-1.23,1.44,-0.57,1.98
24.237,-1.60,1.11,-0.52,2.01
24.247,-1.24,0.92,-0.56,1.64
24.257,-0.44,0.63,-0.55,0.95
24.267,0.53,0.40,-0.26,0.71
24.277,1.05,0.48,0.19,1.17
24.288,0.90,0.45,0.36,1.07
24.298,0.06,0.26,0.02,0.27
24.308,-0.85,0.13,-0.24,0.89
24.318,-1.35,0.11,-0.46,1.43
24.328,-1.35,0.06,-0.68,1.52
24.338,-1.06,0.21,-0.89,1.40
24.348,-0.38,0.30,-0.72,0.87
24.358,0.01,0.83,-0.57,1.01
24.368,-0.08,1.02,-0.68,1.23
24.378,-0.17,1.04,-0.73,1.28
24.388,0.05,0.85,-0.82,1.18
24.398,0.64,0.61,-0.73,1.14
24.408,0.75,-0.05,-0.74,1.05
24.418,0.41,-1.05,-0.38,1.19
24.428,1.93,-5.10,0.97,5.54
24.438,0.71,-4.79,-0.66,4.89
24.448,0.19,-3.57,-2.13,4.16
24.459,0.90,-2.47,-2.32,3.51
24.469,0.67,-2.13,-3.31,4.00
24.479,0.34,-1.82,-3.72,4.15
24.489,-0.03,-1.19,-4.09,4.26
24.499,0.06,-1.31,-3.78,4.00
24.509,0.57,-1.47,-2.33,2.81
24.519,0.94,-1.08,-2.78,3.12
24.529,1.77,-0.49,-2.81,3.36
24.539,2.72,0.28,-2.28,3.56
24.549,3.29,0.75,-1.48,3.69
24.559,3.67,0.81,-0.49,3.79
24.569,3.86,0.94,0.39,3.99
24.579,4.02,1.23,1.18,4.37
24.590,4.13,1.68,1.93,4.86
24.600,4.00,1.88,2.53,5.09
24.611,3.67,1.83,3.07,5.13
24.620,3.00,1.76,3.58,4.99
24.630,2.23,1.67,3.85,4.75
24.640,1.43,1.62,3.90,4.46
24.650,0.86,1.46,3.99,4.34
24.660,0.78,1.30,4.23,4.49
24.670,1.12,1.69,4.58,5.01
24.680,1.49,2.09,4.85,5.49
24.690,1.52,2.02,4.80,5.43
24.700,1.30,1.83,4.58,5.10
24.710,0.75,1.75,4.02,4.44
24.720,0.01,1.72,3.35,3.76
24.730,-0.65,1.59,2.85,3.32
24.740,-1.15,1.36,2.39,2.98
24.751,-1.34,1.11,2.01,2.66
24.761,-1.11,0.92,1.82,2.32
24.771,-0.65,1.13,1.60,2.06
24.781,-0.37,1.32,1.31,1.89
24.791,-0.46,1.16,1.06,1.64
24.801,-0.67,0.70,1.14,1.49
24.811,-0.79,0.22,1.37,1.60
24.821,-0.77,-0.05,1.52,1.71
24.831,-0.68,-0.09,1.58,1.73
24.841,-0.68,-0.13,1.41,1.57
24.851,-0.85,-0.25,1.09,1.41
24.862,-1.06,-0.37,0.87,1.42
24.871,-1.12,-0.63,0.87,1.55
24.882,-1.00,-0.86,0.93,1.61
24.892,-0.90,-1.00,0.79,1.56
24.902,-0.91,-1.09,0.46,1.50
24.912,-0.99,-1.16,0.34,1.56
24.922,-1.04,-1.43,0.28,1.79
24.932,-1.25,-1.69,0.16,2.11
24.942,-1.51,-1.97,0.09,2.49
24.952,-1.62,-2.16,-0.05,2.70
24.962,-1.65,-2.16,-0.31,2.73
24.972,-1.54,-2.03,-0.57,2.61
24.982,-1.30,-1.93,-0.53,2.39
24.992,-1.10,-1.73,-0.37,2.09
25.002,-1.21,-1.62,-0.42,2.07
25.012,-1.39,-1.72,-0.65,2.30
25.023,-1.55,-1.71,-0.85,2.46
25.032,-1.70,-1.66,-0.98,2.57
25.043,-1.72,-1.78,-1.00,2.67
25.053,-1.49,-1.89,-0.96,2.59
25.063,-1.22,-1.92,-0.87,2.43
25.073,-1.24,-2.01,-0.82,2.50
25.083,-1.44,-2.04,-0.89,2.65
25.093,-1.80,-2.12,-1.21,3.03
25.103,-2.11,-2.29,-1.56,3.48
25.113,-2.35,-2.46,-1.89,3.89
25.123,-2.58,-2.56,-2.01,4.15
25.133,-2.75,-2.51,-1.86,4.17
25.144,-2.82,-2.44,-1.68,4.09
25.153,-2.70,-2.18,-1.64,3.84
25.163,-2.56,-1.99,-1.85,3.73
25.173,-2.39,-1.78,-2.23,3.73
25.184,-2.23,-1.51,-2.72,3.83
25.194,-0.89,-1.19,-2.66,3.05
25.204,10.71,-0.11,1.12,10.76
25.214,14.49,-1.18,0.10,14.54
25.224,6.99,-3.22,-4.57,8.95
25.234,3.08,-2.93,-4.22,5.99
25.244,-1.50,-1.98,2.56,3.57
25.254,-1.06,-1.58,0.33,1.93
25.264,-3.10,-0.77,0.75,3.28
25.274,-0.98,-0.10,-0.81,1.27
25.284,-0.58,-0.54,-1.43,1.64
25.294,-0.66,-1.11,-0.58,1.42
25.304,0.67,-1.70,-0.41,1.88
25.314,0.89,-1.68,-0.43,1.94
25.325,0.82,-1.55,-0.12,1.75
25.335,1.16,-1.57,0.38,1.99
25.345,1.30,-1.63,0.60,2.17
25.355,1.17,-1.71,0.59,2.16
25.365,0.90,-1.92,0.71,2.24
25.375,0.57,-2.02,0.80,2.24
25.385,0.55,-1.94,0.74,2.15
25.395,0.64,-1.78,0.76,2.04
25.405,0.64,-1.57,0.92,1.93
25.415,0.73,-1.35,1.05,1.86
25.425,0.96,-1.09,0.89,1.70
25.435,1.47,-1.06,0.46,1.87
25.445,1.87,-1.15,0.05,2.19
25.455,2.08,-1.38,-0.31,2.51
25.466,1.93,-1.80,-0.50,2.68
25.476,1.47,-1.74,-0.42,2.32
25.486,0.76,-1.34,-0.14,1.55
25.496,0.43,-0.58,-0.28,0.77
25.506,0.06,0.27,-1.15,1.18
25.516,-0.56,0.80,-1.15,1.51
25.526,-0.57,0.68,-0.54,1.04
25.536,-0.02,0.19,-0.70,0.72
25.546,0.35,0.24,-1.01,1.10
25.556,0.34,0.60,-1.01,1.22
25.566,0.23,0.76,-0.89,1.19
25.576,0.07,0.88,-0.80,1.19
25.586,-0.15,0.95,-0.75,1.22
25.596,-0.50,0.88,-0.71,1.24
25.607,-0.78,0.75,-0.66,1.27
25.617,-0.98,0.60,-0.60,1.30
25.627,-1.08,0.53,-0.43,1.28
25.637,-0.88,0.54,-0.27,1.06
25.647,-0.55,0.50,-0.45,0.87
25.657,-0.23,0.42,-0.81,0.93
25.667,0.07,0.30,-0.93,0.98
25.677,0.24,0.11,-0.67,0.73
25.687,0.30,-0.15,-0.31,0.46
25.697,0.30,-0.39,-0.06,0.50
25.707,0.29,-0.52,0.05,0.60
25.717,0.26,-0.49,0.15,0.57
25.727,0.20,-0.37,0.26,0.50
25.737,0.21,-0.29,0.26,0.44
25.748,0.22,-0.24,0.18,0.37
25.758,0.22,-0.26,0.23,0.41
25.767,0.22,-0.27,0.29,0.45
25.778,0.21,-0.28,0.33,0.48
25.788,0.21,-0.31,0.35,0.51
25.798,0.23,-0.28,0.29,0.46
25.808,0.23,-0.26,0.20,0.41
25.818,0.18,-0.24,0.14,0.34
25.828,0.18,-0.22,0.05,0.29
25.838,0.20,-0.21,0.04,0.29
25.848,0.22,-0.22,0.07,0.32
25.858,0.23,-0.21,0.02,0.31
25.868,0.17,-0.20,-0.06,0.27
25.878,0.17,-0.18,-0.03,0.26
25.888,0.14,-0.14,0.07,0.21
25.898,0.12,-0.15,0.10,0.22
25.909,0.09,-0.16,0.14,0.24
25.919,0.10,-0.20,0.15,0.27
25.929,0.15,-0.18,0.11,0.26
25.939,0.16,-0.15,0.08,0.23
25.949,0.16,-0.12,0.07,0.22
25.959,0.18,-0.09,0.04,0.20
25.969,0.22,-0.06,0.05,0.23
25.979,0.16,-0.07,0.08,0.19
25.989,0.10,-0.08,0.13,0.18
25.999,0.02,-0.09,0.14,0.17
26.009,-0.05,-0.09,0.16,0.19
26.019,-0.08,-0.08,0.15,0.19
26.029,-0.08,-0.07,0.08,0.14
26.039,-0.12,-0.01,0.09,0.15
26.050,-0.10,0.02,0.11,0.15
26.060,-0.06,-0.01,0.03,0.07
26.070,0.04,-0.06,-0.02,0.08
26.080,0.12,-0.10,-0.02,0.16
26.090,0.11,-0.13,-0.02,0.18
26.100,0.13,-0.17,-0.07,0.22
26.110,0.25,-0.30,-0.01,0.39
26.120,0.41,-0.47,0.06,0.63
26.130,0.18,-0.29,-0.43,0.55
26.140,-0.21,-0.03,-0.26,0.34
26.150,-0.52,0.27,-0.17,0.61
26.160,-0.53,0.19,-0.25,0.62
26.170,-0.43,0.10,-0.38,0.59
26.181,-0.15,0.12,-0.31,0.36
