time,ax,ay,az,atotal
0.000,0.53,-0.33,-0.56,0.83
0.010,0.40,-0.16,-0.89,0.99
0.020,0.30,-0.01,-1.03,1.07
0.030,0.21,0.04,-0.83,0.85
0.040,0.19,0.06,-0.37,0.42
0.050,0.21,0.06,0.11,0.24
0.060,0.24,-0.03,0.28,0.37
0.070,0.34,-0.13,0.25,0.44
0.081,0.52,-0.19,0.19,0.58
0.091,0.59,-0.20,0.09,0.63
0.101,0.63,-0.19,0.01,0.65
0.111,0.67,-0.12,0.01,0.68
0.121,0.65,-0.09,0.08,0.66
0.131,0.58,-0.10,0.08,0.60
0.141,0.45,-0.09,0.03,0.46
0.151,0.42,-0.06,-0.03,0.43
0.161,0.41,-0.01,-0.10,0.42
0.171,0.43,0.05,-0.12,0.45
0.181,0.52,0.06,-0.07,0.52
0.191,0.52,0.02,-0.07,0.53
0.201,0.53,-0.03,-0.16,0.56
0.212,0.51,-0.04,-0.31,0.60
0.222,0.49,0.12,-0.47,0.68
0.232,0.46,0.19,-0.52,0.72
0.242,0.35,0.22,-0.55,0.68
0.252,0.24,0.28,-0.61,0.72
0.262,0.28,0.13,-0.70,0.77
0.272,0.55,-0.21,-0.77,0.97
0.282,0.82,-0.39,-0.76,1.18
0.292,0.99,-0.44,-0.61,1.25
0.302,1.14,-0.33,-0.46,1.27
0.312,0.85,-0.37,-0.40,1.01
0.322,0.37,-0.50,-0.31,0.69
0.332,0.20,-0.51,-0.16,0.57
0.342,0.58,-0.49,-0.30,0.81
0.352,0.93,-0.67,-0.40,1.22
0.362,1.12,-0.94,-0.16,1.47
0.373,0.96,-0.96,0.50,1.45
0.383,0.76,-0.39,1.27,1.53
0.393,0.57,0.31,1.22,1.38
0.403,-0.11,0.71,0.71,1.01
0.413,-1.59,0.02,0.33,1.62
0.423,-1.82,-0.24,-0.31,1.86
0.433,-1.14,0.09,-1.05,1.55
0.443,-0.74,0.11,-1.56,1.73
0.453,0.03,-0.02,-1.65,1.65
0.463,1.01,-0.13,-1.00,1.43
0.473,1.24,-0.27,-0.33,1.31
0.483,1.46,-0.33,0.08,1.50
0.493,1.61,-0.36,0.34,1.68
0.504,1.67,-0.38,0.37,1.76
0.514,1.64,-0.54,0.20,1.74
0.524,1.40,-0.83,-0.13,1.63
0.534,0.97,-1.08,-0.60,1.58
0.544,0.65,-1.09,-1.12,1.69
0.554,0.57,-0.89,-1.64,1.95
0.564,0.64,-0.61,-2.06,2.24
0.574,0.77,-0.31,-2.39,2.53
0.584,1.00,-0.18,-2.50,2.70
0.594,1.18,-0.32,-2.44,2.73
0.604,1.15,-0.65,-2.28,2.64
0.614,1.01,-0.96,-2.11,2.53
0.624,0.83,-1.18,-1.99,2.46
0.634,0.84,-1.27,-1.74,2.31
0.644,1.01,-1.36,-1.44,2.22
0.655,1.16,-1.44,-1.38,2.31
0.665,1.25,-1.43,-1.60,2.48
0.675,1.16,-1.27,-1.83,2.51
0.685,0.93,-1.17,-1.88,2.40
0.695,0.56,-1.30,-1.89,2.37
0.705,0.19,-1.54,-1.95,2.50
0.715,0.09,-1.68,-2.02,2.63
0.725,0.22,-1.67,-2.07,2.67
0.735,0.36,-1.60,-2.16,2.71
0.745,0.35,-1.60,-2.38,2.89
0.755,0.18,-1.63,-2.57,3.05
0.765,-0.23,-1.74,-2.66,3.19
0.775,-0.75,-1.89,-2.75,3.42
0.785,-1.40,-1.78,-2.75,3.56
0.796,-1.43,-1.71,-2.40,3.28
0.806,-1.14,-1.86,-2.23,3.12
0.816,-0.79,-1.97,-2.15,3.02
0.826,-0.70,-2.02,-1.97,2.91
0.836,-0.98,-2.01,-1.57,2.73
0.846,-1.31,-2.12,-1.17,2.75
0.856,-1.60,-2.21,-0.89,2.87
0.866,-1.74,-2.25,-0.85,2.97
0.876,-1.82,-2.15,-0.92,2.97
0.886,-1.71,-2.06,-1.01,2.86
0.896,-1.40,-2.02,-1.05,2.67
0.906,-0.98,-1.96,-1.07,2.44
0.916,-0.85,-1.87,-1.04,2.31
0.926,-0.81,-1.81,-0.96,2.20
0.936,-0.55,-1.63,-0.68,1.85
0.947,-0.10,-1.38,-0.08,1.38
0.957,0.12,-1.17,0.91,1.49
0.967,-0.16,-1.24,1.96,2.33
0.977,-0.72,-1.49,2.77,3.23
0.987,-1.12,-1.73,3.26,3.85
0.997,-0.92,-1.69,3.40,3.90
1.007,-0.33,-1.43,3.24,3.56
1.017,0.45,-1.25,3.05,3.33
1.027,1.30,-0.99,3.05,3.46
1.037,2.02,-0.71,3.35,3.97
1.047,2.33,-0.52,3.90,4.57
1.057,2.20,-0.50,4.55,5.08
1.067,1.79,-0.60,4.97,5.32
1.077,1.53,-0.58,5.06,5.32
1.087,1.52,-0.44,4.81,5.06
1.098,1.60,-0.31,4.37,4.67
1.108,1.68,-0.12,3.84,4.20
1.118,1.59,0.06,3.31,3.67
1.128,1.30,0.12,2.86,3.15
1.138,0.96,0.15,2.46,2.65
1.148,0.78,0.24,2.05,2.21
1.158,0.84,0.33,1.68,1.91
1.168,1.19,0.43,1.33,1.83
1.178,1.59,0.47,1.10,1.99
1.188,1.94,0.45,1.04,2.25
1.198,2.28,0.43,1.12,2.57
1.208,2.56,0.49,1.22,2.88
1.218,2.84,0.59,1.22,3.15
1.228,2.94,0.65,1.09,3.20
1.238,2.73,0.63,0.83,2.92
1.249,2.47,0.49,0.42,2.55
1.259,2.29,0.34,-0.04,2.31
1.269,2.17,0.22,-0.49,2.24
1.279,2.10,0.14,-0.80,2.26
1.289,2.12,0.12,-0.91,2.31
1.299,2.22,0.10,-0.89,2.39
1.309,2.38,0.07,-0.82,2.52
1.319,2.53,0.06,-0.87,2.67
1.329,2.57,0.05,-1.01,2.76
1.339,2.68,0.02,-1.26,2.96
1.349,2.84,-0.05,-1.44,3.19
1.359,2.66,-0.02,-1.39,3.00
1.369,2.38,0.10,-1.19,2.67
1.379,2.27,0.08,-0.95,2.46
1.389,2.23,0.00,-0.83,2.38
1.400,2.12,-0.04,-0.82,2.28
1.410,1.96,-0.01,-0.94,2.17
1.420,1.83,0.09,-1.16,2.17
1.430,1.84,0.17,-1.24,2.22
1.444,1.86,0.16,-1.23,2.23
1.450,1.87,0.13,-1.33,2.30
1.460,2.01,0.15,-1.45,2.49
1.470,2.24,0.25,-1.39,2.65
1.480,2.32,0.31,-1.21,2.63
1.490,2.29,0.28,-0.91,2.48
1.500,2.22,0.19,-0.57,2.30
1.510,2.01,0.12,-0.15,2.02
1.521,1.75,0.12,0.06,1.75
1.531,1.48,0.13,-0.09,1.49
1.541,1.48,0.14,-0.38,1.53
1.551,1.57,0.19,-0.65,1.71
1.561,1.60,0.23,-0.75,1.78
1.571,1.47,0.17,-0.78,1.67
1.581,0.91,0.04,-0.97,1.34
1.591,0.32,0.02,-0.99,1.04
1.601,0.08,0.13,-0.73,0.75
1.611,0.18,0.25,-0.39,0.49
1.621,0.59,0.39,-0.04,0.71
1.631,1.00,0.60,0.55,1.29
1.641,1.72,0.85,0.91,2.12
1.651,2.53,1.30,1.12,3.06
1.661,2.37,1.72,1.48,3.28
1.671,1.25,1.83,-0.36,2.24
1.682,0.48,1.94,-1.69,2.62
1.692,0.10,1.94,-1.69,2.58
1.702,-0.51,1.79,-0.84,2.04
1.712,-1.79,1.44,0.07,2.30
1.722,-2.96,1.32,0.83,3.34
1.732,-3.68,1.57,1.51,4.28
1.742,-3.82,2.06,2.34,4.93
1.752,-3.42,2.02,2.76,4.84
1.762,-3.08,1.62,2.15,4.09
1.772,-3.30,1.32,1.22,3.76
1.782,-3.53,1.02,0.39,3.70
1.792,-3.21,0.84,0.03,3.31
1.802,-2.64,0.96,-0.04,2.81
1.812,-2.02,1.04,-0.05,2.28
1.823,-2.12,1.43,0.00,2.56
1.833,-2.26,0.74,1.74,2.94
1.843,-2.26,-0.41,2.68,3.53
1.853,-1.88,-0.83,2.81,3.48
1.863,-1.82,-0.85,2.46,3.18
1.873,-1.66,-1.12,2.24,3.01
1.883,-1.44,-1.46,2.10,2.94
1.893,-1.49,-1.81,1.93,3.03
1.903,-1.23,-2.01,1.55,2.82
1.913,-0.01,-1.67,1.29,2.10
1.923,1.66,-1.70,0.84,2.51
1.933,1.67,-2.25,0.18,2.80
1.943,0.46,-2.74,-0.35,2.80
1.953,-0.49,-2.81,0.04,2.85
1.964,-0.26,-3.60,0.64,3.67
1.973,-0.23,-4.42,0.45,4.45
1.984,-0.69,-4.31,-0.13,4.36
1.994,-0.76,-3.99,-2.10,4.57
2.004,-0.37,-2.95,-4.03,5.01
2.014,-0.23,-1.55,-4.10,4.39
2.024,0.06,-1.12,-3.23,3.42
2.034,0.87,-1.16,-1.98,2.45
2.044,1.75,-0.85,-0.32,1.97
2.054,2.75,0.41,1.28,3.07
2.064,1.66,3.54,1.82,4.31
2.074,1.54,2.91,0.78,3.39
2.084,0.93,1.28,-0.10,1.59
2.094,-0.24,0.53,-0.58,0.83
2.104,-1.22,0.08,-1.20,1.71
2.115,-2.12,0.20,-1.60,2.66
2.125,-2.63,0.39,-1.71,3.16
2.135,-2.95,0.08,-1.82,3.47
2.145,-2.93,-0.19,-1.62,3.35
2.155,-2.11,-0.70,-1.40,2.62
2.165,-0.76,-1.30,-0.75,1.68
2.175,0.40,-1.72,0.23,1.78
2.185,1.77,-1.88,1.29,2.88
2.195,2.21,-1.37,2.56,3.65
2.205,2.59,-1.03,3.35,4.36
2.215,2.98,-0.95,3.64,4.79
2.225,2.67,-1.02,3.23,4.31
2.235,1.67,-0.68,1.81,2.55
2.245,0.58,-0.25,0.11,0.64
2.255,0.06,-0.29,-1.26,1.29
2.266,-0.49,-0.07,-2.05,2.11
2.276,-1.07,0.01,-2.62,2.83
2.286,-0.93,-0.04,-2.68,2.83
2.296,-0.54,-0.13,-1.91,1.99
2.306,-0.94,-0.10,-0.61,1.13
2.316,-1.80,0.05,0.40,1.85
2.326,-2.29,0.73,0.99,2.60
2.336,-2.50,1.71,1.14,3.23
2.346,-2.53,1.79,1.16,3.31
2.356,-2.44,1.54,0.99,3.05
2.366,-2.22,1.05,0.78,2.58
2.376,-2.11,0.70,0.49,2.28
2.386,-1.77,0.37,0.37,1.85
2.396,-1.02,-0.59,0.50,1.28
2.407,-0.42,-1.67,0.29,1.74
2.417,-0.09,-1.95,-0.41,2.00
2.427,0.18,-1.34,-1.06,1.72
2.437,0.94,-0.14,-1.60,1.86
2.447,2.24,0.24,-1.74,2.84
2.457,3.39,0.21,-1.50,3.71
2.467,3.72,0.50,-1.02,3.89
2.477,3.43,0.40,-0.58,3.50
2.487,2.59,0.42,-0.20,2.63
2.497,1.56,0.78,-0.08,1.75
2.507,0.71,1.33,-0.08,1.51
2.517,-0.23,0.95,-0.15,0.99
2.527,-0.99,0.73,-0.01,1.23
2.537,-1.38,-0.35,0.23,1.44
2.547,-1.82,-1.27,0.45,2.27
2.558,-1.59,-1.10,0.05,1.93
2.568,-0.90,-0.87,-0.80,1.48
2.578,-0.16,-0.49,-1.26,1.36
2.588,0.24,-0.10,-1.16,1.19
2.598,0.36,0.24,-0.56,0.71
2.608,0.15,0.24,0.23,0.36
2.618,0.11,0.02,0.93,0.94
2.628,0.32,-0.15,1.36,1.41
2.638,0.47,-0.35,0.93,1.10
2.648,0.70,-0.59,0.06,0.92
2.658,1.26,0.11,-0.38,1.32
2.668,1.70,1.45,-0.64,2.33
2.678,1.43,1.47,-0.87,2.23
2.688,0.92,1.53,-0.88,1.99
2.698,0.53,0.69,-0.85,1.21
2.709,0.23,-0.27,-0.66,0.75
2.719,0.08,-0.92,-0.28,0.96
2.729,-0.00,-1.28,0.25,1.30
2.739,0.14,-1.39,0.77,1.59
2.749,0.30,-1.30,0.72,1.52
2.759,0.15,-1.38,0.17,1.40
2.769,-0.08,-0.95,-0.09,0.95
2.779,-0.01,0.28,-0.48,0.56
2.789,0.00,1.19,-0.70,1.39
2.799,-0.41,1.30,-0.62,1.49
2.809,-0.92,1.31,-0.36,1.64
2.819,-0.82,2.11,-0.11,2.27
2.829,-0.80,2.10,-0.13,2.25
2.839,-1.18,1.50,-0.02,1.91
2.850,-1.37,1.30,-0.16,1.90
2.860,-1.54,1.40,-0.31,2.10
2.870,-1.72,1.49,-0.27,2.30
2.880,-1.93,1.21,-0.21,2.28
2.890,-2.11,0.74,-0.19,2.25
2.900,-2.11,0.14,-0.36,2.15
2.910,-1.94,-0.85,-0.27,2.14
2.920,-1.54,-1.50,0.07,2.15
2.930,-1.12,-1.40,0.19,1.80
2.940,-0.63,-1.04,0.18,1.23
2.950,-0.26,-0.57,0.16,0.64
2.960,0.13,-0.18,0.10,0.25
2.970,0.36,-0.09,-0.04,0.38
2.980,0.49,-0.16,-0.09,0.52
2.991,0.58,-0.05,-0.06,0.59
3.001,0.77,-0.02,-0.10,0.77
3.011,0.86,0.03,-0.10,0.87
3.021,0.53,0.05,-0.04,0.53
3.031,0.04,0.18,-0.06,0.20
3.041,-0.34,0.40,-0.07,0.53
3.051,-0.85,-0.01,-0.38,0.93
3.061,-0.99,-1.70,-0.69,2.08
3.071,-0.50,-3.30,-0.91,3.46
3.081,0.22,-3.50,-0.96,3.64
3.091,0.68,-2.42,-0.70,2.61
3.101,1.06,-0.67,-0.31,1.29
3.112,1.29,0.36,-0.16,1.35
3.121,1.36,0.53,-0.24,1.48
3.131,1.09,-0.00,-0.41,1.17
3.142,0.94,-0.43,-0.55,1.17
3.152,0.89,-0.34,-0.61,1.14
3.162,0.88,-0.22,-0.57,1.07
3.172,0.85,-0.14,-0.48,0.99
3.182,0.75,-0.78,-0.42,1.16
3.192,0.56,-0.96,-0.34,1.16
3.202,0.37,-0.75,-0.23,0.86
3.212,0.30,-0.51,-0.10,0.60
3.222,0.11,-0.26,-0.02,0.28
3.232,-0.06,-0.34,-0.01,0.34
3.242,-0.09,-0.56,-0.04,0.57
3.252,-0.09,-0.47,-0.03,0.48
3.262,-0.20,-0.24,-0.02,0.31
3.273,-0.31,-0.03,0.02,0.31
3.282,-0.46,0.02,0.05,0.46
3.293,-0.55,0.02,0.11,0.56
3.303,-0.56,0.07,0.14,0.58
3.313,-0.55,0.18,0.16,0.61
3.323,-0.51,0.26,0.19,0.61
3.333,-0.46,0.30,0.17,0.57
3.343,-0.37,0.43,0.15,0.59
3.353,-0.35,0.50,0.18,0.64
3.363,-0.51,0.87,0.27,1.04
3.373,-0.31,-0.05,0.15,0.35
3.383,-0.01,-0.40,0.06,0.40
3.393,-0.14,0.22,0.11,0.28
3.403,-0.18,0.67,0.22,0.73
3.413,-0.07,0.56,0.18,0.59
3.424,-0.05,0.12,-0.01,0.12
3.434,-0.09,-0.38,-0.21,0.44
3.444,0.07,-0.64,-0.30,0.72
3.454,0.54,-0.76,-0.36,0.99
3.464,0.85,-0.62,-0.53,1.18
3.474,0.80,-0.36,-0.68,1.11
3.484,0.59,-0.01,-0.73,0.93
3.494,0.35,0.25,-0.67,0.80
3.504,0.07,0.36,-0.64,0.74
3.514,-0.41,0.24,-0.58,0.75
3.524,-0.90,-0.03,-0.52,1.04
3.534,-1.01,-0.21,-0.48,1.14
3.544,-0.87,-0.18,-0.56,1.05
3.555,-0.59,-0.10,-0.62,0.86
3.564,-0.36,-0.07,-0.64,0.74
3.575,-0.26,-0.05,-0.54,0.60
3.585,-0.22,0.01,-0.35,0.42
3.595,-0.20,0.13,-0.18,0.30
3.605,-0.27,0.18,-0.06,0.32
3.615,-0.29,0.16,0.03,0.33
3.625,-0.35,0.09,0.11,0.38
3.635,-0.34,0.08,0.15,0.38
3.645,-0.23,0.06,0.12,0.27
3.655,-0.11,0.02,0.07,0.13
3.665,0.02,0.03,0.03,0.05
3.675,0.05,0.08,0.04,0.10
3.685,-0.06,0.08,0.03,0.11
3.695,-0.12,0.03,-0.02,0.13
3.705,-0.07,0.01,-0.08,0.11
3.716,0.02,-0.00,-0.10,0.10
3.726,0.11,-0.05,-0.12,0.17
3.736,0.14,-0.09,-0.12,0.20
3.746,0.05,-0.07,-0.17,0.19
3.756,-0.04,0.02,-0.18,0.19
3.766,-0.10,0.10,-0.16,0.21
3.776,-0.10,0.19,-0.14,0.26
3.786,0.06,0.21,-0.14,0.26
3.796,0.13,0.19,-0.12,0.26
3.806,0.12,0.15,-0.08,0.21
3.816,0.15,0.10,-0.06,0.19
3.826,0.17,0.07,-0.02,0.19
3.836,0.23,0.11,-0.02,0.26
3.846,0.33,0.20,-0.04,0.39
3.857,0.40,0.24,-0.02,0.47
3.866,0.43,0.30,-0.03,0.53
3.877,0.46,0.33,-0.07,0.57
3.887,0.49,0.30,-0.14,0.59
3.897,0.51,0.28,-0.19,0.61
3.907,0.47,0.20,-0.21,0.55
3.917,0.40,0.12,-0.25,0.49
3.927,0.32,0.07,-0.28,0.43
3.937,0.23,-0.01,-0.34,0.42
3.947,0.15,-0.07,-0.40,0.43
3.957,0.09,-0.17,-0.44,0.48
3.967,0.01,-0.20,-0.51,0.55
3.977,-0.10,-0.18,-0.56,0.60
3.987,-0.20,-0.16,-0.52,0.58
3.997,-0.22,-0.10,-0.35,0.43
4.007,-0.12,-0.05,-0.15,0.20
4.018,0.02,0.09,-0.02,0.09
4.028,0.15,0.19,0.08,0.25
4.038,0.26,0.26,0.13,0.39
4.048,0.31,0.25,0.17,0.43
4.058,0.29,0.22,0.21,0.42
4.068,0.28,0.11,0.21,0.37
4.078,0.29,0.01,0.22,0.36
4.088,0.35,-0.13,0.17,0.40
4.098,0.40,-0.22,0.09,0.47
4.108,0.37,-0.36,-0.02,0.51
4.118,0.31,-0.45,-0.07,0.55
4.128,0.17,-0.56,-0.04,0.58
4.138,-0.11,-0.61,0.03,0.62
4.148,-0.52,-0.40,0.12,0.67
4.159,-1.04,-0.01,0.18,1.05
4.168,-1.45,0.34,0.20,1.51
4.179,-1.66,0.60,0.16,1.77
4.189,-1.66,0.81,0.07,1.85
4.199,-1.51,0.83,-0.14,1.73
4.209,-1.28,0.63,-0.30,1.46
4.219,-1.05,0.30,-0.38,1.15
4.229,-0.77,0.09,-0.46,0.90
4.239,-0.48,0.01,-0.56,0.74
4.249,-0.23,-0.01,-0.61,0.65
4.259,-0.08,-0.02,-0.66,0.67
4.269,0.01,-0.08,-0.68,0.68
4.279,0.12,-0.13,-0.68,0.70
4.289,0.26,-0.18,-0.67,0.74
4.299,0.39,-0.21,-0.66,0.80
4.310,0.49,-0.21,-0.65,0.84
4.320,0.55,-0.15,-0.58,0.82
4.330,0.55,-0.10,-0.50,0.75
4.340,0.48,-0.09,-0.40,0.64
4.350,0.35,-0.08,-0.32,0.48
4.360,0.24,-0.06,-0.24,0.35
4.370,0.11,-0.02,-0.18,0.22
4.380,-0.01,-0.01,-0.11,0.11
4.390,-0.08,0.04,-0.02,0.09
4.400,-0.09,0.09,0.05,0.13
4.410,-0.09,0.12,0.09,0.17
4.420,-0.15,0.10,0.09,0.20
4.430,-0.18,0.08,0.10,0.22
4.441,-0.18,0.08,0.11,0.22
4.450,-0.17,0.07,0.11,0.21
4.461,-0.14,0.07,0.12,0.20
4.471,-0.12,0.08,0.13,0.19
4.481,-0.05,0.07,0.10,0.13
4.491,-0.01,0.02,0.07,0.08
4.501,0.02,0.00,0.06,0.06
4.511,0.05,-0.01,0.02,0.05
4.521,0.10,0.01,0.01,0.10
4.531,0.08,0.04,0.02,0.09
4.541,0.01,0.04,0.03,0.05
4.551,-0.05,0.02,0.05,0.08
4.561,-0.07,0.03,0.09,0.11
4.571,-0.10,0.04,0.12,0.16
4.581,-0.17,0.06,0.12,0.22
4.592,-0.22,0.04,0.10,0.24
4.602,-0.25,0.03,0.08,0.27
4.612,-0.30,0.03,0.03,0.31
4.622,-0.37,0.01,-0.06,0.38
4.632,-0.35,0.03,-0.17,0.39
4.642,-0.32,0.12,-0.31,0.47
4.652,-0.24,0.16,-0.40,0.49
4.662,-0.19,0.12,-0.44,0.49
4.672,-0.15,0.04,-0.45,0.48
4.682,-0.18,-0.07,-0.45,0.49
4.692,-0.17,-0.12,-0.49,0.53
4.702,-0.05,-0.03,-0.50,0.50
4.712,-0.03,0.01,-0.48,0.48
4.722,0.00,0.03,-0.45,0.45
4.733,0.04,0.04,-0.40,0.40
4.743,0.07,0.04,-0.35,0.36
4.753,0.08,0.04,-0.31,0.32
4.763,0.04,0.03,-0.24,0.24
4.773,0.02,0.02,-0.23,0.23
4.783,-0.01,0.01,-0.23,0.23
4.793,-0.04,0.03,-0.20,0.20
4.803,-0.03,0.03,-0.18,0.18
4.813,-0.04,0.05,-0.15,0.17
4.823,-0.04,0.02,-0.15,0.15
4.833,-0.03,-0.02,-0.10,0.11
4.843,-0.03,-0.03,-0.07,0.09
4.853,-0.02,-0.02,-0.05,0.06
4.863,-0.02,0.05,-0.02,0.05
4.873,-0.04,0.10,0.02,0.11
4.883,-0.09,0.09,0.03,0.13
4.893,-0.12,0.05,0.08,0.15
4.904,-0.15,0.02,0.07,0.16
4.914,-0.13,0.02,0.09,0.15
4.924,-0.11,0.04,0.07,0.14
4.934,-0.09,0.07,0.06,0.13
4.944,-0.07,0.10,0.05,0.13
4.954,-0.10,0.09,0.01,0.13
4.964,-0.10,0.06,0.01,0.12
4.974,-0.12,0.05,-0.03,0.13
4.984,-0.10,0.05,-0.06,0.12
4.994,-0.07,0.04,-0.07,0.11
5.004,-0.02,0.02,-0.09,0.09
5.014,0.02,0.02,-0.13,0.13
5.024,0.02,0.01,-0.15,0.16
5.034,-0.01,0.00,-0.17,0.17
5.045,-0.05,-0.00,-0.19,0.20
5.054,-0.06,-0.02,-0.21,0.22
5.065,-0.07,0.01,-0.23,0.24
5.075,-0.08,0.04,-0.25,0.27
5.085,-0.08,0.04,-0.27,0.29
5.095,-0.09,0.04,-0.24,0.26
5.105,-0.04,0.04,-0.26,0.27
5.115,-0.01,0.02,-0.24,0.24
5.125,-0.02,0.03,-0.21,0.21
5.135,-0.04,0.02,-0.19,0.19
5.145,-0.06,0.04,-0.13,0.15
5.155,-0.08,0.07,-0.09,0.14
5.165,-0.09,0.09,-0.04,0.13
5.175,-0.12,0.07,-0.02,0.14
5.186,-0.11,0.05,0.01,0.12
5.196,-0.12,0.06,0.04,0.14
5.206,-0.15,0.07,0.06,0.18
5.216,-0.16,0.06,0.08,0.19
5.226,-0.18,0.06,0.11,0.22
5.236,-0.18,0.05,0.11,0.22
5.246,-0.14,0.04,0.12,0.19
5.256,-0.13,-0.01,0.12,0.18
5.266,-0.14,-0.02,0.15,0.20
5.276,-0.14,-0.01,0.14,0.20
5.286,-0.13,-0.01,0.14,0.19
5.296,-0.11,0.02,0.13,0.17
5.306,-0.11,0.03,0.11,0.16
5.316,-0.11,0.06,0.10,0.16
5.327,-0.11,0.06,0.09,0.16
5.337,-0.10,0.08,0.07,0.14
5.347,-0.09,0.05,0.05,0.11
5.357,-0.04,0.03,0.03,0.06
5.367,-0.02,0.06,0.01,0.06
5.377,0.03,0.05,-0.01,0.07
5.387,0.06,0.05,-0.05,0.10
5.397,0.12,0.04,-0.05,0.13
5.407,0.13,0.04,-0.07,0.15
5.417,0.18,0.02,-0.10,0.20
5.427,0.19,-0.00,-0.14,0.24
5.437,0.20,-0.01,-0.15,0.25
5.447,0.20,-0.04,-0.16,0.26
5.457,0.17,-0.06,-0.18,0.26
5.467,0.14,-0.09,-0.19,0.26
5.478,0.14,-0.09,-0.21,0.27
5.488,0.12,-0.08,-0.26,0.29
5.498,0.08,-0.07,-0.27,0.29
5.508,0.04,-0.06,-0.25,0.26
5.518,-0.02,-0.06,-0.26,0.27
5.528,-0.07,-0.06,-0.28,0.29
5.538,-0.14,-0.03,-0.26,0.30
5.548,-0.19,0.02,-0.25,0.31
5.558,-0.22,0.08,-0.23,0.33
5.568,-0.26,0.10,-0.16,0.32
5.578,-0.29,0.10,-0.11,0.32
5.588,-0.31,0.10,-0.04,0.32
5.598,-0.33,0.14,0.05,0.36
5.609,-0.36,0.20,0.12,0.42
5.619,-0.36,0.26,0.18,0.48
5.629,-0.38,0.26,0.23,0.51
5.639,-0.39,0.25,0.27,0.54
5.649,-0.36,0.20,0.30,0.50
5.659,-0.34,0.15,0.30,0.48
5.669,-0.33,0.10,0.33,0.47
5.679,-0.26,0.09,0.34,0.43
5.689,-0.17,0.10,0.31,0.36
5.699,-0.06,0.13,0.25,0.29
5.709,0.05,0.14,0.20,0.25
5.719,0.12,0.10,0.10,0.18
5.729,0.17,-0.01,0.02,0.17
5.740,0.25,-0.08,-0.07,0.27
5.750,0.37,-0.14,-0.16,0.43
5.760,0.41,-0.21,-0.24,0.52
5.770,0.41,-0.32,-0.29,0.60
5.780,0.33,-0.37,-0.36,0.61
5.790,0.31,-0.34,-0.37,0.59
5.800,0.30,-0.20,-0.41,0.54
5.810,0.22,-0.06,-0.44,0.49
5.820,0.05,0.03,-0.44,0.44
5.830,-0.12,0.01,-0.44,0.46
5.840,-0.19,-0.04,-0.42,0.47
5.850,-0.19,-0.04,-0.43,0.48
5.860,-0.15,-0.01,-0.41,0.44
5.870,-0.09,0.05,-0.39,0.41
5.880,0.04,0.10,-0.40,0.41
5.891,0.16,0.14,-0.39,0.44
5.900,0.26,0.09,-0.34,0.44
5.911,0.32,0.02,-0.29,0.43
5.921,0.34,-0.03,-0.23,0.42
5.931,0.34,-0.04,-0.16,0.38
5.941,0.28,-0.04,-0.06,0.29
5.951,0.19,-0.04,0.00,0.19
5.961,0.09,-0.04,0.09,0.14
5.971,-0.03,-0.05,0.15,0.16
5.981,-0.14,-0.01,0.18,0.23
5.991,-0.23,0.03,0.22,0.32
6.001,-0.29,0.05,0.22,0.36
6.011,-0.29,0.08,0.21,0.37
6.021,-0.29,0.14,0.19,0.37
6.031,-0.31,0.17,0.18,0.39
6.042,-0.31,0.15,0.15,0.37
6.052,-0.29,0.11,0.15,0.34
6.062,-0.18,0.04,0.13,0.23
6.072,-0.09,-0.02,0.13,0.16
6.082,-0.01,-0.03,0.13,0.13
6.092,0.11,0.03,0.12,0.17
6.102,0.15,0.06,0.08,0.18
6.112,0.06,-0.08,0.06,0.11
6.122,-0.03,-0.16,0.00,0.17
6.132,0.02,-0.06,-0.10,0.12
6.142,0.14,0.13,-0.22,0.29
6.152,0.20,0.25,-0.33,0.46
6.162,0.25,0.23,-0.40,0.53
6.172,0.28,0.06,-0.41,0.50
6.182,0.35,-0.15,-0.40,0.55
6.193,0.43,-0.24,-0.34,0.59
6.202,0.46,-0.16,-0.29,0.57
6.213,0.36,-0.14,-0.22,0.45
6.223,0.19,-0.11,-0.12,0.25
6.233,0.01,-0.11,-0.04,0.12
6.243,-0.20,-0.09,0.04,0.22
6.253,-0.34,-0.03,0.09,0.35
6.263,-0.40,0.09,0.13,0.43
6.273,-0.39,0.20,0.10,0.45
6.283,-0.36,0.25,0.05,0.44
6.293,-0.35,0.22,-0.04,0.42
6.303,-0.33,0.15,-0.15,0.39
6.313,-0.29,0.06,-0.26,0.40
6.323,-0.23,0.02,-0.38,0.44
6.333,-0.15,0.01,-0.43,0.45
6.344,-0.08,0.05,-0.39,0.40
6.354,-0.05,0.04,-0.31,0.32
6.364,-0.04,0.01,-0.18,0.18
6.374,-0.01,-0.01,-0.03,0.03
6.384,0.03,-0.05,0.12,0.13
6.394,0.07,-0.03,0.24,0.25
6.404,0.11,-0.00,0.33,0.34
6.414,0.12,0.02,0.37,0.39
6.424,0.13,0.02,0.41,0.43
6.434,0.14,0.03,0.42,0.44
6.444,0.12,0.02,0.40,0.42
6.454,0.08,0.04,0.37,0.38
6.464,0.05,0.06,0.32,0.33
6.475,0.01,0.12,0.23,0.26
6.484,-0.04,0.15,0.18,0.24
6.495,-0.06,0.13,0.12,0.19
6.505,-0.04,0.09,0.07,0.12
6.515,-0.02,0.02,0.04,0.05
6.525,0.01,-0.06,0.00,0.06
6.535,0.02,-0.15,-0.04,0.16
6.545,0.05,-0.18,-0.07,0.20
6.555,0.10,-0.17,-0.13,0.24
6.565,0.16,-0.10,-0.17,0.25
6.575,0.13,-0.02,-0.22,0.26
6.585,0.11,0.05,-0.23,0.26
6.595,0.02,0.08,-0.28,0.29
6.605,-0.04,0.09,-0.32,0.34
6.615,-0.12,0.09,-0.33,0.37
6.625,-0.17,0.07,-0.34,0.39
6.635,-0.20,0.03,-0.31,0.38
6.645,-0.21,0.02,-0.29,0.36
6.656,-0.21,0.02,-0.26,0.33
6.666,-0.16,0.03,-0.22,0.27
6.676,-0.10,0.05,-0.17,0.21
6.686,-0.01,0.02,-0.12,0.12
6.696,0.04,0.02,-0.09,0.10
6.706,0.09,0.01,-0.06,0.11
6.716,0.08,-0.00,-0.04,0.09
6.726,0.03,-0.01,0.00,0.04
6.736,-0.02,-0.04,0.02,0.05
6.746,-0.05,-0.04,0.05,0.09
6.756,-0.09,-0.02,0.07,0.11
6.766,-0.10,0.04,0.09,0.14
6.777,-0.11,0.11,0.11,0.19
6.786,-0.11,0.14,0.10,0.20
6.797,-0.11,0.13,0.13,0.21
6.807,-0.10,0.07,0.13,0.17
6.817,-0.10,-0.01,0.10,0.14
6.827,-0.09,-0.05,0.06,0.12
6.837,-0.03,-0.04,0.01,0.05
6.847,0.04,0.02,-0.04,0.06
6.857,0.10,0.06,-0.09,0.15
6.867,0.17,0.07,-0.10,0.21
6.877,0.20,0.09,-0.11,0.24
6.887,0.19,0.09,-0.09,0.23
6.897,0.13,0.07,-0.09,0.17
6.907,0.05,0.02,-0.06,0.08
6.918,-0.01,-0.03,-0.04,0.05
6.927,-0.02,-0.02,-0.02,0.03
6.938,-0.01,-0.02,-0.03,0.04
6.948,0.02,0.00,-0.02,0.03
6.958,0.05,0.01,-0.02,0.06
6.968,0.04,0.00,0.00,0.04
6.978,0.03,0.01,0.03,0.05
6.988,0.02,0.06,0.06,0.08
6.998,-0.03,0.09,0.07,0.11
7.008,-0.03,0.08,0.07,0.11
7.018,-0.02,0.03,0.08,0.09
7.028,-0.00,-0.01,0.07,0.07
7.038,0.05,-0.07,0.04,0.10
7.048,0.08,-0.09,0.00,0.12
7.059,0.12,-0.08,-0.07,0.15
7.069,0.18,-0.07,-0.10,0.22
7.079,0.18,-0.05,-0.16,0.25
7.089,0.19,-0.04,-0.19,0.27
7.099,0.15,-0.03,-0.22,0.27
7.109,0.09,-0.02,-0.23,0.25
7.119,0.04,-0.02,-0.24,0.25
7.129,-0.01,-0.03,-0.25,0.25
7.139,-0.01,-0.04,-0.25,0.25
7.149,0.01,-0.02,-0.22,0.23
7.159,0.02,0.00,-0.22,0.22
7.169,0.02,0.00,-0.21,0.21
7.179,0.02,0.03,-0.18,0.19
7.189,-0.00,0.03,-0.13,0.13
7.199,-0.07,0.02,-0.10,0.12
7.210,-0.09,0.03,-0.07,0.11
7.220,-0.13,0.05,-0.03,0.14
7.230,-0.17,0.09,0.02,0.19
7.240,-0.19,0.10,0.06,0.22
7.250,-0.19,0.07,0.10,0.23
7.260,-0.17,0.02,0.12,0.20
7.270,-0.11,0.00,0.12,0.16
7.280,-0.04,-0.03,0.12,0.13
7.290,0.05,-0.03,0.10,0.12
7.300,0.13,-0.01,0.10,0.16
7.310,0.12,0.03,0.09,0.16
7.320,0.11,0.06,0.09,0.15
7.330,0.04,0.06,0.09,0.12
7.340,-0.02,0.04,0.09,0.10
7.350,-0.08,0.02,0.11,0.13
7.361,-0.13,-0.00,0.07,0.14
7.370,-0.13,-0.00,0.05,0.14
7.381,-0.12,-0.00,0.01,0.12
7.391,-0.07,0.04,-0.02,0.08
7.401,-0.04,0.06,-0.05,0.09
7.411,-0.04,0.07,-0.10,0.13
7.421,-0.05,0.04,-0.11,0.13
7.431,-0.08,0.02,-0.11,0.13
7.441,-0.09,-0.04,-0.12,0.16
7.451,-0.11,-0.04,-0.11,0.16
7.461,-0.09,-0.02,-0.11,0.14
7.471,-0.07,0.05,-0.12,0.15
7.481,-0.07,0.09,-0.11,0.16
7.491,-0.07,0.10,-0.09,0.15
7.501,-0.07,0.09,-0.06,0.13
7.512,-0.06,0.04,-0.03,0.08
7.522,-0.05,0.01,-0.00,0.05
7.532,-0.03,-0.02,0.04,0.05
7.542,0.01,-0.02,0.03,0.04
7.552,0.05,-0.02,0.04,0.07
7.562,0.10,-0.02,0.04,0.11
7.572,0.12,-0.01,0.05,0.13
7.582,0.11,0.02,0.05,0.12
7.592,0.07,0.03,0.07,0.10
7.602,0.00,0.03,0.08,0.09
7.612,-0.05,0.03,0.07,0.09
7.622,-0.11,0.04,0.08,0.14
7.632,-0.14,0.03,0.07,0.16
7.642,-0.15,0.03,0.06,0.17
7.653,-0.14,0.01,0.04,0.15
7.663,-0.08,0.00,0.01,0.08
7.673,0.00,0.02,-0.01,0.02
7.683,0.09,0.03,-0.02,0.10
7.693,0.14,0.04,-0.04,0.15
7.703,0.14,0.01,-0.05,0.15
7.713,0.12,0.00,-0.07,0.14
7.723,0.09,-0.00,-0.07,0.12
7.733,0.03,0.01,-0.08,0.08
7.743,-0.02,0.01,-0.09,0.09
7.753,-0.07,0.00,-0.07,0.10
7.763,-0.10,-0.01,-0.07,0.12
7.773,-0.07,0.02,-0.07,0.10
7.783,-0.04,0.05,-0.05,0.09
7.793,-0.01,0.05,-0.07,0.08
7.804,0.00,0.03,-0.06,0.07
7.814,0.02,0.01,-0.04,0.04
7.824,0.00,-0.00,-0.03,0.03
7.834,0.01,-0.02,-0.02,0.03
7.844,0.02,-0.01,-0.01,0.03
7.854,0.01,-0.01,0.02,0.02
7.864,0.03,0.02,0.02,0.04
7.874,0.05,0.04,0.01,0.06
7.884,0.04,0.05,0.02,0.07
7.894,0.06,0.03,0.03,0.07
7.904,0.03,0.01,0.03,0.05
7.914,0.02,0.01,0.02,0.03
7.924,-0.02,-0.01,0.00,0.02
7.934,-0.03,-0.01,-0.02,0.03
7.945,-0.01,0.01,-0.03,0.03
7.955,0.01,0.02,-0.04,0.05
7.965,0.05,0.03,-0.04,0.07
7.975,0.05,0.01,-0.05,0.07
7.985,0.04,-0.01,-0.03,0.05
7.995,0.05,-0.02,-0.04,0.06
8.005,0.05,-0.01,-0.03,0.06
8.015,0.05,-0.00,-0.05,0.07
8.025,0.04,0.03,-0.06,0.08
8.035,0.01,0.04,-0.07,0.08
8.045,-0.02,-0.00,-0.08,0.08
8.055,-0.04,-0.04,-0.07,0.09
8.065,-0.05,-0.06,-0.07,0.10
8.075,-0.06,-0.03,-0.08,0.10
8.085,-0.03,0.01,-0.06,0.07
8.096,-0.03,0.08,-0.04,0.09
8.106,-0.01,0.09,-0.02,0.09
8.116,0.00,0.06,0.00,0.06
8.126,-0.01,0.03,0.03,0.05
8.136,-0.02,0.02,0.04,0.05
8.146,-0.03,0.02,0.05,0.06
8.156,-0.03,0.01,0.04,0.05
8.166,-0.01,0.02,0.02,0.03
8.176,0.03,0.01,0.03,0.05
8.186,0.05,-0.01,0.03,0.06
8.196,0.06,-0.02,0.03,0.07
8.206,0.06,-0.02,0.02,0.06
8.216,0.04,0.02,0.01,0.04
8.226,-0.01,0.02,0.02,0.03
8.236,-0.05,0.03,-0.00,0.05
8.247,-0.06,0.04,-0.01,0.07
8.257,-0.06,0.03,-0.00,0.07
8.267,-0.07,0.02,-0.01,0.08
8.277,-0.05,0.01,-0.02,0.06
8.287,-0.01,-0.00,-0.03,0.03
8.297,0.03,0.01,-0.03,0.04
8.307,0.06,0.01,-0.04,0.07
8.317,0.05,0.03,-0.04,0.07
8.327,0.03,0.03,-0.04,0.06
8.337,-0.01,0.02,-0.03,0.04
8.347,-0.05,0.02,-0.04,0.07
8.357,-0.07,0.01,-0.04,0.08
8.367,-0.07,0.01,-0.04,0.08
8.378,-0.03,0.00,-0.04,0.06
8.388,-0.01,0.01,-0.03,0.03
8.398,0.02,0.00,-0.01,0.02
8.408,0.03,0.02,-0.00,0.04
8.418,0.03,0.02,0.02,0.04
8.428,0.04,0.04,0.02,0.06
8.438,0.01,0.04,0.02,0.05
8.448,-0.01,0.04,0.02,0.05
8.458,-0.04,0.01,0.03,0.05
8.468,-0.04,-0.02,0.02,0.05
8.478,-0.03,-0.03,0.01,0.04
8.488,0.00,-0.02,0.01,0.02
8.498,0.04,0.02,0.00,0.04
8.508,0.05,0.04,-0.01,0.07
8.518,0.04,0.06,-0.02,0.07
8.529,0.00,0.07,0.00,0.07
8.539,-0.03,0.05,0.01,0.06
8.549,-0.04,0.02,0.01,0.05
8.559,-0.07,-0.01,0.02,0.07
8.569,-0.07,-0.03,0.01,0.08
8.579,-0.05,-0.03,-0.02,0.06
8.589,0.02,-0.01,-0.01,0.02
8.599,0.05,-0.01,-0.01,0.05
8.609,0.07,-0.00,-0.02,0.07
8.619,0.06,0.04,-0.02,0.07
8.629,0.03,0.05,0.00,0.05
8.639,-0.01,0.02,-0.01,0.03
8.649,-0.04,0.00,-0.02,0.04
8.659,-0.06,0.00,-0.01,0.06
8.670,-0.08,0.01,-0.01,0.08
8.680,-0.07,0.04,0.00,0.08
8.690,-0.05,0.05,0.02,0.07
8.700,-0.06,0.02,0.02,0.06
8.710,-0.08,0.02,0.04,0.09
8.720,-0.06,0.01,0.03,0.07
8.730,-0.01,0.05,0.03,0.06
8.740,0.02,0.06,0.02,0.07
8.750,0.05,0.07,0.00,0.09
8.760,0.07,0.04,0.02,0.08
8.770,0.08,-0.03,0.01,0.08
8.780,0.09,-0.05,0.01,0.10
8.790,0.09,-0.06,0.01,0.11
8.800,0.04,-0.05,0.03,0.07
8.811,0.01,-0.02,0.02,0.03
8.821,-0.04,0.01,0.02,0.05
8.831,-0.05,0.08,0.02,0.10
8.841,-0.08,0.10,-0.00,0.13
8.851,-0.09,0.09,0.01,0.12
8.861,-0.07,0.04,-0.00,0.08
8.871,-0.04,-0.01,-0.00,0.05
8.881,0.01,-0.01,-0.02,0.02
8.891,0.03,-0.01,-0.03,0.04
8.901,0.03,0.01,-0.05,0.06
8.911,0.02,0.02,-0.04,0.05
8.921,-0.01,0.02,-0.05,0.05
8.931,-0.00,0.02,-0.04,0.04
8.941,-0.01,-0.00,-0.06,0.06
8.951,-0.00,0.00,-0.04,0.04
8.962,-0.01,0.01,-0.03,0.03
8.972,-0.00,0.03,-0.05,0.05
8.982,0.01,0.04,-0.04,0.06
8.992,-0.01,0.03,-0.03,0.04
9.002,-0.00,0.02,-0.02,0.03
9.012,-0.01,-0.00,-0.01,0.01
9.022,-0.02,-0.01,0.03,0.03
9.032,-0.02,-0.01,0.02,0.03
9.042,-0.03,-0.00,0.02,0.03
9.052,-0.03,0.02,0.04,0.05
9.062,-0.01,0.03,0.02,0.04
9.072,-0.01,0.04,0.04,0.06
9.082,-0.01,0.06,0.03,0.06
9.092,-0.00,0.02,0.03,0.04
9.102,0.00,0.00,0.03,0.03
9.113,0.05,0.02,0.04,0.07
9.123,0.05,0.02,0.04,0.06
9.133,0.03,-0.01,0.05,0.06
9.143,0.01,-0.01,0.05,0.05
9.153,0.01,-0.01,0.03,0.04
9.163,-0.02,0.02,0.01,0.03
9.173,-0.04,0.03,-0.02,0.06
9.183,-0.02,0.03,0.00,0.04
9.193,-0.00,0.03,-0.01,0.04
9.203,0.02,0.03,-0.04,0.05
9.213,0.02,0.01,-0.02,0.03
9.223,0.01,0.01,-0.04,0.04
9.233,0.01,-0.03,-0.01,0.03
9.243,0.04,-0.03,-0.02,0.06
9.253,0.05,-0.00,-0.05,0.07
9.264,0.07,0.02,-0.05,0.09
9.274,0.07,0.04,-0.06,0.10
9.284,0.05,0.05,-0.06,0.09
9.294,0.02,0.02,-0.04,0.05
9.304,-0.01,0.01,-0.03,0.04
9.314,-0.05,0.02,-0.03,0.06
9.324,-0.07,0.01,-0.02,0.07
9.334,-0.08,0.02,-0.01,0.08
9.344,-0.06,0.04,-0.00,0.08
9.354,-0.01,0.03,0.00,0.04
9.364,0.05,0.04,0.02,0.06
9.374,0.05,0.02,0.01,0.06
9.384,0.06,0.00,0.04,0.07
9.395,0.03,-0.01,0.04,0.05
9.405,0.02,-0.02,0.01,0.03
9.415,0.01,-0.02,-0.00,0.03
9.425,-0.01,-0.01,-0.01,0.02
9.435,-0.04,0.01,-0.02,0.05
9.445,-0.06,0.03,-0.01,0.06
9.455,-0.04,0.05,-0.02,0.07
9.465,-0.04,0.06,-0.01,0.07
9.475,0.00,0.04,-0.01,0.04
9.485,0.03,0.02,-0.00,0.03
9.495,0.03,0.01,0.02,0.03
9.505,0.02,0.03,0.02,0.04
9.516,-0.00,0.05,0.02,0.05
9.525,-0.02,0.05,0.01,0.06
9.536,-0.04,0.04,0.01,0.05
9.546,-0.03,0.02,0.01,0.04
9.556,-0.03,0.01,0.01,0.04
9.566,-0.02,0.01,-0.00,0.02
9.576,0.00,-0.01,0.01,0.02
9.586,0.03,0.02,0.01,0.03
9.596,0.06,0.02,-0.00,0.06
9.606,0.06,0.02,-0.01,0.06
9.616,0.03,0.00,0.00,0.03
9.626,0.01,-0.01,0.03,0.03
9.636,-0.01,-0.02,0.02,0.03
9.646,-0.03,-0.02,0.02,0.04
9.656,-0.03,0.00,0.02,0.03
9.666,-0.04,0.02,0.02,0.05
9.676,-0.04,0.05,0.01,0.07
9.686,-0.04,0.06,-0.01,0.08
9.697,-0.04,0.05,-0.01,0.06
9.707,-0.03,0.02,-0.00,0.04
9.717,-0.04,0.01,-0.02,0.05
9.727,-0.01,0.02,-0.02,0.03
9.737,0.01,0.01,-0.03,0.03
9.747,0.03,-0.02,-0.04,0.05
9.757,0.02,-0.02,-0.04,0.05
9.767,0.04,-0.03,-0.04,0.06
9.777,0.03,-0.01,-0.05,0.06
9.787,0.08,0.03,-0.05,0.10
9.797,0.08,0.06,-0.05,0.11
9.807,0.06,0.04,-0.03,0.08
9.817,0.04,-0.02,-0.02,0.05
9.827,0.04,-0.04,0.01,0.06
9.838,0.02,-0.03,-0.00,0.04
9.848,-0.01,0.02,-0.01,0.02
9.858,-0.04,0.05,-0.00,0.07
9.868,-0.06,0.05,0.01,0.08
9.878,-0.07,0.05,0.02,0.09
9.888,-0.04,0.01,0.01,0.04
9.898,-0.04,-0.03,0.00,0.05
9.908,-0.02,-0.04,0.01,0.04
9.918,0.02,-0.02,0.00,0.03
9.928,0.09,0.01,0.01,0.09
9.938,0.10,0.03,0.02,0.11
9.948,0.09,0.06,0.00,0.10
9.958,0.08,0.05,-0.00,0.10
9.968,0.03,0.03,0.01,0.05
9.978,-0.01,-0.01,0.02,0.03
9.989,-0.02,-0.04,0.01,0.05
9.999,-0.06,-0.03,-0.01,0.06
10.009,-0.07,-0.03,-0.03,0.08
10.019,-0.04,0.00,-0.02,0.04
10.029,-0.05,0.03,-0.02,0.06
10.039,-0.02,0.02,-0.03,0.04
10.049,0.01,0.03,-0.02,0.04
10.059,-0.00,0.05,-0.00,0.05
10.069,-0.03,0.05,0.02,0.06
10.079,-0.03,0.04,-0.00,0.05
10.089,0.00,0.01,0.03,0.03
10.099,0.04,-0.00,0.05,0.07
10.109,0.06,0.00,0.06,0.08
10.119,0.08,0.00,0.04,0.09
10.130,0.09,-0.02,0.02,0.10
10.140,0.10,0.01,0.00,0.10
10.150,0.08,0.01,-0.01,0.09
10.160,0.03,0.01,0.01,0.03
10.170,-0.01,0.02,0.00,0.02
10.180,-0.06,0.03,-0.01,0.07
10.190,-0.08,0.04,-0.01,0.09
10.200,-0.09,0.04,-0.02,0.10
10.210,-0.06,0.03,-0.01,0.07
10.220,-0.04,0.03,-0.03,0.06
10.230,-0.02,0.01,-0.02,0.03
10.240,0.01,-0.01,-0.04,0.04
10.250,0.04,-0.01,-0.04,0.06
10.260,0.06,-0.00,-0.04,0.07
10.270,0.05,-0.00,-0.05,0.07
10.281,0.04,0.01,-0.04,0.06
10.291,0.02,0.01,-0.05,0.06
10.301,0.01,0.01,-0.04,0.05
10.311,0.02,0.04,-0.05,0.07
10.321,0.02,0.02,-0.02,0.03
10.331,0.01,0.02,0.00,0.03
10.341,-0.00,0.01,0.01,0.01
10.351,0.01,0.02,0.02,0.03
10.361,-0.01,0.02,0.03,0.04
10.371,-0.02,0.03,0.02,0.05
10.381,-0.02,0.04,0.04,0.06
10.391,-0.02,0.00,0.02,0.02
10.401,0.02,-0.05,0.00,0.05
10.411,0.05,-0.06,-0.00,0.08
10.421,0.09,-0.03,-0.02,0.09
10.432,0.07,0.00,0.01,0.07
10.442,0.02,0.05,0.01,0.05
10.452,-0.07,0.07,0.02,0.10
10.462,-0.12,0.10,0.03,0.16
10.472,-0.11,0.09,0.04,0.15
10.482,-0.12,0.05,0.03,0.13
10.492,-0.04,0.00,0.02,0.05
10.502,0.03,-0.03,0.02,0.05
10.512,0.12,-0.04,0.01,0.13
10.522,0.16,-0.03,-0.00,0.16
10.532,0.16,-0.01,-0.03,0.17
10.542,0.13,0.01,-0.04,0.14
10.552,0.06,-0.00,-0.04,0.08
10.563,-0.01,-0.02,-0.02,0.03
10.573,-0.06,-0.03,-0.04,0.08
10.583,-0.08,-0.01,-0.04,0.09
10.593,-0.09,0.02,-0.02,0.10
10.603,-0.07,0.06,-0.03,0.10
10.613,-0.03,0.08,-0.04,0.10
10.623,-0.00,0.09,-0.01,0.09
10.633,-0.01,0.05,-0.01,0.06
10.643,-0.07,-0.01,-0.01,0.07
10.653,-0.10,-0.07,0.01,0.12
10.663,-0.10,-0.09,-0.01,0.14
10.673,-0.10,-0.07,-0.05,0.14
10.683,-0.07,-0.01,-0.07,0.10
10.693,0.00,0.07,-0.09,0.11
10.703,0.09,0.11,-0.07,0.16
10.714,0.17,0.09,-0.04,0.20
10.724,0.23,0.04,0.02,0.23
10.734,0.23,-0.00,0.05,0.24
10.744,0.19,-0.02,0.09,0.21
10.754,0.15,-0.05,0.14,0.22
10.764,0.10,-0.03,0.16,0.19
10.774,0.05,-0.01,0.15,0.15
10.784,0.02,-0.01,0.10,0.10
10.794,-0.05,0.02,0.07,0.09
10.804,-0.10,0.03,0.03,0.11
10.814,-0.12,0.04,-0.02,0.13
10.824,-0.13,0.06,-0.04,0.15
10.834,-0.13,0.05,-0.06,0.15
10.845,-0.11,0.02,-0.08,0.13
10.855,-0.07,-0.02,-0.07,0.10
10.865,-0.02,-0.07,-0.08,0.11
10.875,0.06,-0.05,-0.07,0.11
10.885,0.12,-0.03,-0.08,0.14
10.895,0.14,0.03,-0.08,0.17
10.905,0.17,0.07,-0.10,0.20
10.915,0.13,0.07,-0.09,0.17
10.925,0.08,0.05,-0.07,0.12
10.935,0.08,0.03,-0.06,0.10
10.945,0.07,0.02,-0.05,0.09
10.955,0.03,0.02,-0.04,0.06
10.965,-0.01,0.00,-0.03,0.03
10.975,-0.05,-0.01,-0.04,0.06
10.985,-0.04,-0.03,-0.05,0.07
10.995,-0.03,-0.03,-0.03,0.05
11.006,-0.02,0.05,-0.01,0.05
11.016,-0.04,0.10,0.03,0.12
11.026,-0.07,0.13,0.06,0.15
11.036,-0.07,0.09,0.10,0.16
11.046,-0.12,0.06,0.12,0.18
11.056,-0.12,0.01,0.14,0.19
11.066,-0.12,-0.00,0.14,0.19
11.076,-0.10,0.00,0.10,0.14
11.086,-0.03,-0.01,0.06,0.07
11.096,0.07,-0.01,0.03,0.08
11.106,0.14,-0.03,0.00,0.14
11.116,0.19,-0.04,-0.04,0.20
11.126,0.18,-0.02,-0.05,0.19
11.136,0.13,0.00,-0.03,0.13
11.147,0.07,0.01,-0.03,0.08
11.157,-0.00,0.04,-0.02,0.04
11.167,-0.08,0.06,-0.00,0.10
11.177,-0.15,0.05,0.01,0.16
11.187,-0.16,0.05,0.02,0.17
11.197,-0.14,0.03,0.01,0.14
11.207,-0.10,0.02,-0.02,0.11
11.217,-0.06,0.03,-0.05,0.08
11.227,-0.00,-0.01,-0.06,0.06
11.237,0.03,-0.02,-0.08,0.08
11.247,0.03,0.01,-0.05,0.06
11.257,0.03,0.04,-0.05,0.07
11.267,0.01,0.06,-0.02,0.06
11.277,-0.01,0.05,0.02,0.05
11.287,0.00,0.03,0.03,0.04
11.298,0.04,-0.00,0.05,0.06
11.308,0.05,-0.02,0.04,0.07
11.318,0.07,-0.02,0.02,0.07
11.328,0.07,-0.01,-0.00,0.07
11.338,0.07,-0.01,-0.01,0.07
11.348,0.06,-0.00,-0.00,0.06
11.358,0.01,-0.00,-0.02,0.02
11.368,-0.03,0.03,-0.01,0.04
11.378,-0.06,0.04,-0.01,0.07
11.388,-0.06,0.05,0.01,0.08
11.398,-0.06,0.03,-0.00,0.06
11.408,-0.02,0.01,-0.01,0.02
11.418,0.03,0.02,-0.00,0.04
11.428,0.07,0.01,-0.02,0.07
11.439,0.06,0.01,-0.01,0.06
11.449,0.08,0.02,-0.02,0.08
11.459,0.05,0.04,-0.01,0.06
11.469,0.01,0.01,-0.00,0.02
11.479,-0.03,-0.01,0.01,0.03
11.489,-0.05,-0.03,0.01,0.06
11.499,-0.04,-0.02,0.00,0.04
11.509,0.01,0.00,-0.01,0.02
11.519,0.04,0.05,-0.00,0.07
11.529,0.04,0.06,-0.01,0.08
11.539,0.04,0.06,0.03,0.08
11.549,0.02,0.00,0.02,0.03
11.559,-0.02,-0.03,0.01,0.04
11.569,-0.02,-0.03,0.02,0.04
11.579,-0.00,0.01,0.01,0.02
11.590,-0.01,0.05,-0.00,0.05
11.600,-0.01,0.06,-0.03,0.07
11.610,0.00,0.03,-0.02,0.04
11.620,0.03,0.01,-0.01,0.04
11.630,0.05,0.02,0.00,0.05
11.640,0.05,0.02,-0.01,0.06
11.650,0.04,0.03,-0.02,0.05
11.660,0.06,0.00,-0.01,0.06
11.670,0.07,-0.01,-0.03,0.08
11.680,0.08,-0.03,-0.04,0.09
11.690,0.07,-0.02,-0.04,0.08
11.700,0.04,-0.02,-0.05,0.06
11.710,0.00,-0.01,-0.04,0.04
11.720,-0.02,-0.00,-0.03,0.04
11.731,-0.05,0.03,-0.03,0.07
11.741,-0.06,0.06,-0.01,0.08
11.751,-0.08,0.05,-0.01,0.09
11.761,-0.06,0.04,0.00,0.07
11.771,0.00,0.00,-0.01,0.01
11.781,0.06,-0.01,-0.00,0.06
11.791,0.08,-0.01,-0.01,0.08
11.801,0.08,-0.01,0.01,0.08
11.811,0.07,-0.00,0.03,0.08
11.821,0.05,0.02,0.01,0.05
11.831,0.03,0.05,0.02,0.06
11.841,0.00,0.04,0.02,0.05
11.851,-0.03,0.05,0.03,0.06
11.861,-0.03,0.02,0.01,0.04
11.872,0.03,-0.00,-0.00,0.03
11.882,0.07,-0.03,-0.00,0.08
11.892,0.08,-0.05,0.01,0.10
11.902,0.08,-0.02,0.02,0.09
11.912,0.05,0.01,0.02,0.06
11.922,0.01,0.02,-0.00,0.02
11.932,-0.06,0.04,0.01,0.07
11.942,-0.09,0.06,-0.00,0.11
11.952,-0.10,0.06,-0.02,0.11
11.962,-0.09,0.03,-0.02,0.09
11.972,-0.09,0.02,-0.04,0.10
11.982,-0.06,-0.02,-0.03,0.07
11.992,0.01,-0.04,-0.03,0.05
12.002,0.08,-0.03,-0.03,0.09
12.013,0.10,-0.03,-0.02,0.10
12.022,0.12,0.00,-0.03,0.12
12.033,0.09,0.02,-0.02,0.09
12.043,0.05,0.05,-0.02,0.07
12.053,-0.03,0.05,0.01,0.05
12.063,-0.08,0.03,0.02,0.09
12.073,-0.08,0.02,0.02,0.08
12.083,-0.06,-0.01,0.02,0.06
12.093,0.01,-0.00,0.02,0.02
12.103,0.06,0.01,0.02,0.06
12.113,0.07,-0.01,0.02,0.07
12.123,0.05,-0.03,0.03,0.07
12.133,0.03,-0.04,0.02,0.05
12.143,0.01,-0.01,0.00,0.01
12.153,-0.01,0.05,0.01,0.05
12.164,-0.02,0.10,0.02,0.10
12.174,-0.04,0.10,0.03,0.11
12.184,-0.06,0.06,0.03,0.09
12.194,-0.05,0.02,0.05,0.07
12.204,-0.04,-0.02,0.04,0.06
12.214,0.01,-0.03,0.01,0.03
12.224,0.05,-0.01,0.00,0.06
12.234,0.06,-0.01,-0.02,0.07
12.244,0.07,0.00,-0.03,0.08
12.254,0.09,0.01,-0.02,0.10
12.264,0.08,0.01,-0.01,0.09
12.274,0.05,0.00,-0.03,0.06
12.284,0.02,-0.00,-0.02,0.03
12.294,-0.03,-0.01,-0.02,0.04
12.304,-0.05,0.02,-0.01,0.06
12.315,-0.06,0.04,-0.02,0.08
12.325,-0.09,0.04,-0.04,0.10
12.335,-0.06,0.02,-0.04,0.07
12.345,-0.03,0.01,-0.02,0.04
12.355,-0.00,0.00,-0.03,0.03
12.365,0.02,0.03,-0.02,0.04
12.375,0.04,0.02,0.01,0.05
12.385,0.03,0.03,0.03,0.05
12.395,0.04,0.03,0.02,0.05
12.405,0.03,0.02,0.04,0.05
12.415,0.02,0.04,0.04,0.06
12.425,0.01,0.01,0.04,0.04
12.435,-0.00,0.00,0.05,0.06
12.445,0.00,0.02,0.05,0.06
12.456,-0.00,0.03,0.04,0.04
12.466,-0.00,0.02,0.02,0.03
12.476,0.02,0.02,0.02,0.03
12.486,0.02,0.00,0.01,0.02
12.496,-0.02,-0.01,-0.01,0.02
12.506,0.02,-0.02,-0.00,0.03
12.516,0.01,-0.01,-0.02,0.02
12.526,0.03,0.00,-0.04,0.05
12.536,0.04,0.01,-0.05,0.07
12.546,0.03,0.03,-0.05,0.06
12.556,0.02,0.05,-0.04,0.07
12.566,0.02,0.06,-0.03,0.07
12.576,-0.00,0.04,-0.02,0.05
12.586,-0.02,0.02,-0.01,0.03
12.597,-0.03,-0.02,-0.01,0.04
12.607,-0.01,-0.03,-0.01,0.03
12.617,0.02,-0.01,-0.01,0.03
12.627,0.03,0.01,-0.02,0.04
12.637,0.02,0.02,0.00,0.03
12.647,0.04,0.03,0.01,0.05
12.657,0.05,0.02,0.04,0.07
12.667,0.04,0.03,0.05,0.07
12.677,0.01,0.02,0.04,0.05
12.687,0.01,0.01,0.03,0.03
12.697,-0.03,-0.01,0.03,0.04
12.707,-0.02,-0.03,0.03,0.05
12.717,-0.03,-0.04,0.00,0.05
12.727,-0.01,0.02,0.01,0.03
12.738,-0.00,0.07,-0.01,0.07
12.747,-0.04,0.07,0.00,0.08
12.758,-0.03,0.05,0.01,0.06
12.768,-0.04,0.02,0.02,0.05
12.778,-0.02,0.01,0.02,0.02
12.788,0.01,0.02,0.00,0.03
12.798,0.02,0.03,0.00,0.03
12.808,0.02,0.01,-0.02,0.03
12.818,0.04,-0.01,-0.04,0.06
12.828,0.08,-0.03,-0.04,0.09
12.838,0.09,-0.04,-0.05,0.11
12.848,0.08,-0.02,-0.04,0.09
12.858,0.06,-0.01,-0.04,0.08
12.868,0.03,-0.01,-0.03,0.04
12.878,-0.01,0.02,-0.03,0.04
12.888,-0.04,0.04,-0.01,0.06
12.899,-0.06,0.03,-0.01,0.07
12.909,-0.07,0.02,-0.00,0.07
12.919,-0.05,0.01,0.01,0.05
12.929,-0.00,0.02,0.00,0.02
12.939,0.05,-0.00,0.01,0.05
12.949,0.06,0.00,0.00,0.06
12.959,0.05,-0.00,0.01,0.05
12.969,0.05,0.02,0.02,0.06
12.979,0.03,0.02,0.03,0.05
12.989,0.01,0.03,0.02,0.04
12.999,0.01,0.02,0.05,0.05
13.009,-0.01,0.02,0.04,0.04
13.019,0.01,0.02,0.02,0.03
13.029,0.04,0.00,0.01,0.04
13.040,0.05,-0.01,0.00,0.06
13.050,0.04,-0.02,0.01,0.05
13.060,0.04,-0.01,0.01,0.04
13.070,0.01,-0.02,0.01,0.02
13.080,-0.01,0.00,-0.02,0.02
13.090,-0.03,0.01,0.00,0.03
13.100,-0.02,0.02,-0.02,0.03
13.110,-0.02,0.02,-0.03,0.05
13.120,-0.03,0.03,-0.03,0.05
13.130,-0.03,0.01,-0.04,0.05
13.140,0.00,0.01,-0.03,0.03
13.150,0.01,0.02,-0.02,0.03
13.160,0.02,0.04,-0.02,0.05
13.170,0.02,0.04,-0.00,0.05
13.180,0.03,0.04,0.00,0.05
13.190,0.02,0.01,-0.01,0.03
13.201,0.00,-0.04,0.01,0.04
13.211,0.02,-0.02,-0.01,0.03
13.221,0.02,-0.03,0.01,0.04
13.231,0.02,0.00,0.02,0.03
13.241,0.02,0.05,0.04,0.07
13.251,0.00,0.08,0.05,0.09
13.261,-0.02,0.07,0.05,0.09
13.271,-0.04,0.01,0.08,0.09
13.281,-0.05,-0.03,0.06,0.08
13.291,-0.04,-0.04,0.05,0.08
13.301,-0.02,-0.00,0.03,0.04
13.311,-0.01,0.02,0.02,0.03
13.321,-0.01,0.06,0.02,0.06
13.332,-0.00,0.07,0.01,0.07
13.342,-0.01,0.06,0.02,0.07
13.352,-0.01,0.06,0.02,0.07
13.362,0.00,0.05,0.02,0.06
13.372,0.01,0.03,0.01,0.04
13.382,0.05,-0.02,0.01,0.06
13.392,0.07,-0.05,-0.01,0.08
13.402,0.11,-0.06,-0.02,0.13
13.412,0.11,-0.06,-0.03,0.13
13.422,0.10,-0.05,-0.03,0.12
13.432,0.00,0.01,-0.02,0.02
13.442,-0.06,0.03,-0.01,0.06
13.452,-0.08,0.07,-0.01,0.11
13.462,-0.11,0.06,-0.02,0.13
13.472,-0.09,0.07,-0.02,0.12
13.483,-0.06,0.02,0.01,0.06
13.493,0.00,-0.01,0.02,0.02
13.503,0.04,-0.03,0.01,0.05
13.513,0.06,-0.02,0.03,0.07
13.523,0.05,-0.02,0.05,0.07
13.533,0.01,0.02,0.04,0.05
13.543,-0.02,0.03,0.06,0.08
13.553,-0.02,0.05,0.07,0.09
13.563,-0.01,0.07,0.06,0.09
13.573,0.02,0.07,0.04,0.08
13.583,0.05,0.03,0.06,0.08
13.593,0.05,0.01,0.06,0.08
13.603,0.05,-0.02,0.06,0.08
13.614,0.05,-0.03,0.06,0.08
13.624,0.03,-0.01,0.06,0.07
13.634,-0.01,0.01,0.06,0.06
13.644,-0.03,0.01,0.04,0.06
13.654,-0.05,0.02,0.02,0.05
13.664,-0.04,0.02,-0.01,0.04
13.674,-0.02,0.02,-0.04,0.05
13.684,0.01,0.00,-0.05,0.05
13.694,0.03,-0.01,-0.08,0.09
13.704,0.03,-0.01,-0.09,0.10
13.714,0.04,0.01,-0.10,0.11
13.724,0.04,0.03,-0.08,0.10
13.734,0.04,0.04,-0.08,0.10
13.744,0.02,0.04,-0.05,0.07
13.754,0.02,0.02,-0.06,0.07
13.765,0.00,-0.03,-0.04,0.05
13.775,0.04,-0.04,-0.05,0.08
13.785,0.04,-0.04,-0.04,0.07
13.795,0.04,-0.02,-0.02,0.05
13.805,0.01,0.01,-0.02,0.03
13.815,-0.02,0.05,-0.01,0.05
13.825,-0.08,0.09,0.01,0.12
13.835,-0.11,0.09,0.06,0.15
13.845,-0.08,0.06,0.07,0.12
13.855,-0.05,0.02,0.07,0.08
13.865,-0.00,0.00,0.07,0.07
13.875,0.03,-0.00,0.06,0.07
13.885,0.04,0.01,0.05,0.07
13.895,0.03,0.03,0.06,0.07
13.906,0.02,0.01,0.04,0.05
13.916,0.00,0.01,0.05,0.05
13.926,-0.00,0.02,0.03,0.03
13.936,0.00,0.03,0.00,0.03
13.946,0.02,0.03,-0.02,0.04
13.956,0.06,0.02,-0.03,0.07
13.966,0.09,0.01,-0.05,0.10
13.976,0.10,0.01,-0.05,0.11
13.986,0.05,-0.02,-0.04,0.07
13.996,0.03,-0.03,-0.07,0.08
14.006,-0.01,-0.03,-0.08,0.09
14.016,-0.05,-0.00,-0.09,0.11
14.026,-0.09,0.02,-0.10,0.13
14.036,-0.08,0.05,-0.11,0.14
14.047,-0.05,0.04,-0.12,0.14
14.056,-0.00,0.03,-0.10,0.10
14.067,0.05,0.02,-0.08,0.10
14.077,0.09,0.02,-0.05,0.11
14.087,0.09,-0.01,-0.03,0.10
14.097,0.05,-0.01,0.01,0.05
14.107,0.04,-0.00,0.02,0.04
14.117,0.03,0.03,0.02,0.05
14.127,0.02,0.04,0.03,0.05
14.137,0.01,0.03,0.04,0.05
14.147,0.00,0.02,0.04,0.04
14.157,0.02,-0.00,0.05,0.05
14.167,0.04,-0.01,0.04,0.06
14.177,0.03,-0.02,0.02,0.04
14.187,0.03,-0.01,0.02,0.03
14.198,0.04,-0.00,0.02,0.05
14.208,0.02,0.02,0.01,0.03
14.218,0.00,0.01,-0.00,0.02
14.228,0.02,0.01,-0.01,0.02
14.238,0.01,0.03,-0.02,0.03
14.248,0.02,0.03,-0.03,0.05
14.258,0.03,0.02,-0.05,0.06
14.268,0.06,-0.01,-0.03,0.07
14.278,0.06,-0.02,-0.04,0.08
14.288,0.06,0.01,-0.03,0.06
14.298,0.04,0.02,-0.03,0.05
14.308,0.05,0.03,-0.04,0.07
14.318,0.02,0.02,-0.03,0.04
14.328,-0.01,0.01,-0.02,0.02
14.338,-0.01,-0.01,-0.02,0.02
14.349,0.01,-0.00,-0.01,0.01
14.359,0.01,0.00,0.00,0.01
14.369,0.01,0.02,-0.00,0.02
14.379,-0.02,0.04,0.02,0.05
14.389,-0.04,0.01,0.05,0.07
14.399,-0.05,0.02,0.03,0.06
14.409,-0.04,-0.01,0.05,0.06
14.419,0.03,0.01,0.04,0.05
14.429,0.04,0.02,0.02,0.05
14.439,0.04,0.04,0.03,0.06
14.449,0.05,0.04,0.03,0.07
14.459,0.02,0.02,0.03,0.05
14.469,-0.00,0.02,0.01,0.03
14.479,-0.01,0.03,0.01,0.03
14.490,0.01,0.02,0.01,0.03
14.500,0.03,0.01,-0.01,0.03
14.510,0.06,-0.00,-0.02,0.07
14.520,0.09,0.00,-0.02,0.09
14.530,0.08,0.00,-0.02,0.08
14.540,0.02,-0.01,-0.00,0.02
14.550,-0.02,-0.02,-0.00,0.03
14.560,-0.07,0.00,0.01,0.07
14.570,-0.11,0.04,-0.01,0.12
14.580,-0.12,0.05,-0.02,0.13
14.590,-0.10,0.04,-0.01,0.11
14.600,-0.08,0.04,-0.04,0.10
14.610,-0.03,0.01,-0.05,0.06
14.620,0.03,0.01,-0.03,0.04
14.630,0.04,0.01,-0.04,0.05
14.640,0.04,0.02,-0.00,0.04
14.651,0.04,0.03,0.01,0.05
14.661,0.07,0.02,0.02,0.08
14.671,0.09,0.00,0.02,0.09
14.681,0.08,-0.02,0.04,0.09
14.691,0.05,-0.02,0.04,0.07
14.701,0.03,-0.03,0.03,0.05
14.711,0.01,0.02,0.01,0.02
14.721,-0.00,0.03,0.01,0.03
14.731,-0.02,0.05,0.01,0.05
14.741,-0.02,0.03,0.01,0.04
14.751,-0.02,0.00,0.03,0.03
14.761,0.01,-0.01,0.02,0.03
14.771,0.02,-0.02,0.01,0.03
14.781,0.03,0.01,-0.01,0.03
14.792,0.03,0.03,-0.01,0.05
14.802,-0.00,0.01,0.01,0.01
14.812,-0.01,0.03,-0.02,0.04
14.822,-0.02,0.04,-0.00,0.04
14.832,-0.00,0.02,-0.01,0.02
14.842,0.02,0.02,-0.01,0.03
14.852,-0.00,0.02,-0.01,0.02
14.862,0.01,0.03,-0.00,0.03
14.872,-0.00,0.02,-0.00,0.02
14.882,-0.03,0.02,0.01,0.04
14.892,-0.01,0.01,0.00,0.01
14.902,0.02,-0.01,0.01,0.02
14.912,0.04,0.01,-0.01,0.04
14.923,0.05,0.03,-0.01,0.06
14.933,0.04,0.01,-0.02,0.05
14.943,0.05,-0.02,-0.01,0.05
14.953,0.02,-0.03,0.00,0.04
14.963,0.00,-0.04,0.01,0.04
14.973,-0.02,0.01,0.00,0.02
14.983,-0.03,0.05,0.01,0.06
14.993,-0.06,0.09,0.03,0.11
15.003,-0.06,0.08,0.03,0.10
15.013,-0.04,0.05,0.03,0.07
15.023,-0.02,0.02,0.02,0.03
15.033,0.00,0.02,0.00,0.02
15.043,0.02,0.04,0.01,0.04
15.053,0.05,0.03,0.01,0.05
15.063,0.07,0.01,-0.01,0.07
15.074,0.08,-0.03,-0.00,0.08
15.083,0.10,-0.04,-0.00,0.11
15.094,0.10,-0.02,0.00,0.10
15.104,0.06,-0.02,0.01,0.06
15.114,0.01,-0.02,0.01,0.02
15.124,-0.03,0.01,-0.01,0.03
15.134,-0.07,0.05,-0.02,0.09
15.144,-0.08,0.06,-0.04,0.11
15.154,-0.11,0.04,-0.04,0.13
15.164,-0.08,0.04,-0.05,0.11
15.174,-0.04,0.04,-0.06,0.08
15.184,0.01,0.00,-0.04,0.04
15.194,0.01,-0.04,-0.02,0.05
15.204,0.06,-0.03,-0.01,0.07
15.215,0.04,-0.00,-0.00,0.04
15.224,0.06,0.02,0.02,0.07
15.235,0.03,0.05,0.02,0.06
15.245,0.02,0.05,0.02,0.06
15.255,0.02,0.06,0.02,0.06
15.265,-0.01,0.03,-0.00,0.03
15.275,0.02,-0.01,0.01,0.02
15.285,0.05,-0.04,0.02,0.06
15.295,0.10,-0.05,0.01,0.12
15.305,0.11,-0.05,0.02,0.13
15.315,0.09,-0.05,0.00,0.10
15.325,0.06,-0.01,0.01,0.06
15.335,0.01,0.02,0.03,0.03
15.345,-0.05,0.04,0.03,0.07
15.356,-0.08,0.05,0.02,0.09
15.365,-0.08,0.04,0.01,0.09
15.376,-0.07,0.04,0.00,0.08
15.386,-0.05,0.04,-0.01,0.06
15.396,-0.02,0.02,-0.01,0.03
15.406,0.00,0.03,-0.01,0.03
15.416,0.03,0.03,-0.00,0.04
15.426,0.04,0.03,0.00,0.05
15.436,0.03,-0.00,0.01,0.04
15.446,0.05,-0.00,0.01,0.05
15.456,0.04,-0.01,0.02,0.04
15.466,0.04,-0.00,0.01,0.04
15.476,0.04,0.02,0.01,0.05
15.486,0.02,0.03,0.01,0.04
15.496,0.02,0.01,0.01,0.03
15.507,0.00,-0.03,0.00,0.03
15.517,0.00,-0.04,0.01,0.04
15.527,0.02,-0.01,0.00,0.02
15.537,-0.01,0.05,0.00,0.05
15.547,-0.04,0.08,0.01,0.09
15.557,-0.05,0.06,0.02,0.08
15.567,-0.06,0.05,0.02,0.08
15.577,-0.03,0.03,0.01,0.05
15.587,0.01,0.01,-0.02,0.02
15.597,0.05,-0.01,-0.02,0.05
15.607,0.07,-0.02,-0.03,0.08
15.617,0.09,-0.02,-0.04,0.10
15.627,0.09,0.01,-0.03,0.09
15.637,0.07,0.02,-0.03,0.08
15.647,0.02,0.02,-0.01,0.03
15.658,-0.03,-0.00,0.01,0.03
15.667,-0.07,-0.02,0.01,0.07
15.678,-0.06,0.01,0.02,0.07
15.688,-0.08,0.05,-0.00,0.10
15.698,-0.07,0.05,-0.02,0.09
15.708,-0.05,0.04,-0.00,0.06
15.718,-0.01,0.03,-0.03,0.04
15.728,0.01,0.02,-0.03,0.04
15.738,0.05,0.02,-0.03,0.06
15.748,0.04,-0.00,-0.01,0.04
15.758,0.04,-0.01,0.03,0.05
15.768,0.02,-0.01,0.03,0.04
15.778,0.01,0.01,0.03,0.03
15.788,-0.01,0.04,0.05,0.07
15.799,-0.04,0.05,0.05,0.08
15.809,-0.04,0.06,0.04,0.09
15.819,-0.04,0.05,0.02,0.06
15.829,-0.01,0.03,-0.00,0.03
15.839,0.03,0.00,-0.01,0.03
15.849,0.07,-0.03,-0.01,0.07
15.859,0.09,-0.03,-0.01,0.10
15.869,0.10,-0.04,-0.02,0.11
15.879,0.10,-0.04,-0.04,0.11
15.889,0.07,-0.05,-0.03,0.09
15.899,0.03,-0.03,-0.03,0.06
15.909,-0.01,0.01,-0.02,0.03
15.919,-0.04,0.03,-0.01,0.05
15.929,-0.07,0.04,-0.01,0.08
15.939,-0.09,0.09,0.01,0.12
15.949,-0.10,0.09,0.02,0.14
15.960,-0.09,0.09,0.01,0.12
15.970,-0.09,0.06,0.01,0.11
15.980,-0.05,0.03,0.02,0.07
15.990,-0.01,-0.00,0.04,0.04
16.000,0.03,-0.01,0.05,0.06
16.010,0.07,0.01,0.05,0.09
16.020,0.08,0.03,0.03,0.09
16.030,0.08,0.04,0.01,0.09
16.040,0.07,-0.03,0.01,0.07
16.050,0.03,-0.05,0.01,0.06
16.060,0.00,-0.07,-0.01,0.07
16.070,0.01,-0.04,-0.01,0.05
16.080,-0.01,-0.00,-0.02,0.02
16.091,-0.02,0.03,-0.01,0.04
16.100,-0.06,0.06,-0.00,0.08
16.111,-0.06,0.08,0.01,0.10
16.121,-0.06,0.10,-0.00,0.11
16.131,-0.03,0.09,0.00,0.10
16.141,0.00,0.04,-0.01,0.05
16.151,0.06,-0.03,-0.02,0.07
16.161,0.10,-0.06,-0.03,0.12
16.171,0.14,-0.06,-0.02,0.15
16.181,0.15,-0.07,-0.04,0.17
16.191,0.11,-0.04,-0.05,0.13
16.201,0.03,0.01,-0.06,0.07
16.211,-0.06,0.05,-0.04,0.09
16.221,-0.12,0.08,-0.01,0.15
16.231,-0.14,0.08,-0.02,0.16
16.241,-0.10,0.05,-0.02,0.12
16.251,-0.07,0.02,0.00,0.07
16.262,0.00,-0.03,0.02,0.04
16.272,0.07,-0.05,0.03,0.09
16.282,0.10,-0.05,0.01,0.11
16.292,0.07,-0.04,0.03,0.09
16.302,0.04,-0.00,0.05,0.06
16.312,0.02,0.06,0.03,0.07
16.322,-0.02,0.10,0.03,0.11
16.332,-0.01,0.10,0.04,0.10
16.342,-0.02,0.04,0.05,0.07
16.352,-0.01,-0.01,0.07,0.07
16.362,0.03,-0.02,0.04,0.05
16.372,0.03,-0.04,0.01,0.05
16.383,0.04,-0.04,-0.01,0.05
16.393,0.06,-0.04,-0.02,0.07
16.403,0.08,-0.02,-0.04,0.09
16.413,0.09,-0.01,-0.06,0.11
16.423,0.09,0.00,-0.05,0.11
16.433,0.10,0.02,-0.06,0.12
16.443,0.07,0.02,-0.04,0.09
16.453,0.03,0.02,-0.02,0.05
16.463,0.00,0.04,0.01,0.04
16.473,0.00,0.04,0.01,0.04
16.483,0.00,0.03,-0.00,0.03
16.493,-0.02,0.03,0.00,0.04
16.503,-0.01,0.02,0.02,0.03
16.513,0.02,-0.00,0.02,0.03
16.524,0.03,0.01,0.02,0.04
16.533,0.05,-0.00,0.01,0.05
16.544,0.05,0.02,0.01,0.05
16.554,0.03,0.02,0.02,0.04
16.564,-0.01,0.04,0.02,0.05
16.574,-0.04,0.05,0.02,0.07
16.584,-0.06,0.02,0.06,0.08
16.594,-0.08,-0.00,0.05,0.09
16.604,-0.04,-0.01,0.06,0.08
16.614,-0.01,0.02,0.06,0.06
16.624,0.01,0.04,0.04,0.06
16.634,0.02,0.04,0.03,0.06
16.644,0.01,0.04,0.03,0.05
16.654,0.01,0.02,0.01,0.02
16.665,-0.00,0.00,-0.01,0.01
16.675,0.01,0.01,-0.04,0.04
16.685,0.06,-0.01,-0.06,0.08
16.695,0.08,-0.04,-0.08,0.12
16.705,0.12,-0.04,-0.06,0.14
16.715,0.13,-0.02,-0.06,0.15
16.725,0.13,-0.02,-0.05,0.14
16.735,0.08,-0.03,-0.05,0.10
16.745,-0.01,-0.03,-0.03,0.04
16.755,-0.08,-0.02,-0.02,0.09
16.765,-0.10,-0.00,-0.03,0.10
16.775,-0.09,0.04,-0.03,0.11
16.785,-0.06,0.03,-0.01,0.07
16.795,-0.06,0.04,-0.02,0.07
16.805,-0.03,0.04,-0.01,0.05
16.815,-0.00,0.05,0.01,0.05
16.826,0.04,0.03,0.02,0.06
16.836,0.03,0.04,0.04,0.06
16.846,-0.02,0.01,0.04,0.05
16.856,-0.04,0.01,0.08,0.09
16.866,-0.07,0.03,0.09,0.11
16.876,-0.06,0.04,0.07,0.10
16.886,-0.06,0.05,0.07,0.10
16.896,-0.05,0.03,0.06,0.08
16.906,-0.02,0.02,0.05,0.06
16.916,0.04,0.02,0.04,0.06
16.926,0.06,0.00,0.03,0.06
16.936,0.05,-0.01,0.04,0.07
16.946,0.01,-0.00,0.02,0.02
16.956,-0.01,0.01,-0.01,0.02
16.967,-0.03,0.04,-0.01,0.05
16.977,-0.06,0.04,0.01,0.07
16.987,-0.07,0.03,0.01,0.08
16.997,-0.05,0.04,0.00,0.07
17.007,-0.03,0.01,-0.01,0.04
17.017,0.01,0.03,-0.01,0.03
17.027,0.04,0.03,-0.01,0.05
17.037,0.02,0.03,-0.02,0.04
17.047,0.00,0.04,-0.02,0.04
17.057,-0.01,0.01,-0.03,0.03
17.067,-0.03,0.01,-0.02,0.04
17.077,-0.02,0.01,-0.01,0.03
17.087,-0.00,0.03,-0.03,0.04
17.097,0.03,0.04,-0.03,0.06
17.107,0.04,-0.01,-0.03,0.05
17.118,0.07,-0.05,-0.02,0.09
17.128,0.05,-0.07,-0.02,0.09
17.138,0.04,-0.07,-0.01,0.08
17.148,0.04,-0.02,-0.01,0.05
17.158,0.01,0.04,-0.01,0.04
17.168,-0.03,0.05,0.01,0.06
17.178,-0.05,0.05,0.02,0.08
17.188,-0.05,0.05,0.01,0.07
17.198,-0.05,0.04,0.01,0.06
17.208,0.02,0.06,-0.01,0.06
17.218,0.07,0.05,-0.03,0.09
17.228,0.12,0.02,-0.04,0.13
17.238,0.17,-0.03,-0.01,0.18
17.248,0.19,-0.04,-0.03,0.19
17.258,0.17,-0.03,-0.02,0.18
17.269,0.11,-0.04,-0.02,0.12
17.279,0.02,-0.04,0.00,0.04
17.289,-0.02,-0.04,-0.00,0.05
17.299,-0.03,0.02,-0.01,0.04
17.309,-0.05,0.05,-0.03,0.08
17.319,-0.07,0.06,-0.02,0.09
17.329,-0.07,0.06,-0.04,0.10
17.339,-0.07,0.05,-0.04,0.09
17.349,-0.04,0.04,-0.03,0.07
17.359,-0.04,0.03,-0.01,0.05
17.369,-0.02,0.03,-0.02,0.04
17.379,0.01,0.02,-0.01,0.03
17.389,0.06,0.02,-0.01,0.07
17.399,0.09,0.00,-0.02,0.10
17.410,0.11,-0.01,0.00,0.11
17.420,0.09,-0.00,-0.00,0.09
17.430,0.07,-0.02,-0.03,0.08
17.440,0.06,-0.03,-0.02,0.07
17.450,0.06,-0.03,-0.02,0.07
17.460,0.05,-0.01,-0.03,0.06
17.470,0.03,-0.01,-0.03,0.05
17.480,0.02,-0.01,-0.02,0.03
17.490,0.01,0.01,-0.02,0.02
17.500,-0.02,0.03,0.00,0.03
17.510,-0.04,0.05,0.01,0.07
17.520,-0.08,0.09,0.04,0.13
17.530,-0.09,0.08,0.05,0.13
17.540,-0.06,0.05,0.03,0.09
17.551,-0.02,0.04,0.03,0.06
17.561,0.03,0.03,0.01,0.05
17.571,0.06,0.02,-0.00,0.07
17.581,0.10,0.00,0.01,0.10
17.591,0.09,-0.04,-0.00,0.10
17.601,0.06,-0.03,0.01,0.07
17.611,0.05,-0.00,-0.00,0.05
17.621,-0.01,0.07,-0.00,0.07
17.631,-0.05,0.09,-0.02,0.11
17.641,-0.09,0.04,0.00,0.10
17.651,-0.11,-0.02,0.00,0.11
17.661,-0.08,-0.07,-0.00,0.10
17.671,-0.01,-0.04,-0.01,0.05
17.681,0.03,0.02,-0.05,0.06
17.692,0.04,0.08,-0.05,0.10
17.702,0.02,0.09,-0.05,0.11
17.712,-0.01,0.07,-0.05,0.08
17.722,-0.03,0.04,-0.04,0.06
17.732,0.01,-0.01,-0.07,0.07
17.742,0.04,-0.04,-0.07,0.09
17.752,0.10,-0.07,-0.08,0.14
17.762,0.16,-0.09,-0.07,0.20
17.772,0.20,-0.06,-0.06,0.22
17.782,0.18,0.00,-0.05,0.19
17.792,0.10,0.02,-0.05,0.11
17.802,0.01,0.02,0.01,0.02
17.812,-0.08,0.03,0.05,0.10
17.822,-0.14,0.06,0.08,0.17
17.833,-0.14,0.08,0.09,0.19
17.843,-0.17,0.12,0.09,0.22
17.853,-0.14,0.10,0.11,0.20
17.863,-0.16,0.06,0.07,0.19
17.873,-0.12,0.05,0.08,0.15
17.883,-0.07,0.06,0.05,0.10
17.893,0.02,0.04,0.03,0.05
17.903,0.06,0.04,-0.01,0.07
17.913,0.08,0.02,-0.02,0.08
17.923,0.07,0.02,-0.03,0.08
17.933,0.06,0.01,-0.04,0.07
17.943,0.06,-0.01,-0.05,0.08
17.953,0.08,-0.02,-0.07,0.11
17.963,0.12,-0.04,-0.06,0.14
17.973,0.15,-0.06,-0.06,0.17
17.983,0.15,-0.04,-0.05,0.16
17.994,0.15,-0.02,-0.06,0.16
18.004,0.12,-0.04,-0.04,0.13
18.014,0.10,-0.08,-0.02,0.13
18.024,0.08,-0.11,-0.01,0.14
18.034,0.05,-0.12,0.03,0.14
18.044,-0.02,-0.14,0.05,0.15
18.054,-0.11,-0.13,0.05,0.18
18.064,-0.19,-0.05,0.09,0.22
18.074,-0.22,0.14,0.10,0.28
18.084,-0.16,0.33,0.07,0.37
18.094,-0.03,0.42,0.03,0.42
18.104,0.10,0.31,-0.05,0.33
18.114,0.24,0.06,-0.09,0.26
18.124,0.31,-0.13,-0.12,0.36
18.135,0.36,-0.27,-0.14,0.47
18.145,0.40,-0.29,-0.14,0.51
18.155,0.31,-0.30,-0.13,0.46
18.165,0.21,-0.22,-0.10,0.32
18.175,0.14,-0.06,-0.09,0.17
18.185,-0.01,0.05,-0.04,0.06
18.195,-0.15,0.12,-0.01,0.19
18.205,-0.21,0.12,-0.02,0.24
18.215,-0.23,0.10,-0.00,0.25
18.225,-0.20,0.11,-0.00,0.23
18.235,-0.21,0.10,-0.01,0.24
18.245,-0.25,0.08,-0.02,0.26
18.255,-0.22,0.07,-0.00,0.23
18.265,-0.21,0.01,0.04,0.21
18.276,-0.19,-0.04,0.10,0.22
18.286,-0.16,-0.03,0.15,0.23
18.296,-0.07,0.02,0.20,0.21
18.306,0.08,0.08,0.21,0.24
18.316,0.19,0.09,0.19,0.29
18.326,0.33,0.13,0.16,0.39
18.336,0.42,0.19,0.11,0.48
18.346,0.48,0.21,0.08,0.53
18.356,0.52,0.18,0.03,0.55
18.366,0.54,0.05,-0.01,0.54
18.376,0.53,-0.10,-0.05,0.55
18.386,0.53,-0.24,-0.09,0.59
18.396,0.47,-0.31,-0.14,0.58
18.406,0.39,-0.34,-0.21,0.56
18.417,0.29,-0.28,-0.23,0.47
18.427,0.13,-0.21,-0.25,0.35
18.437,-0.02,-0.14,-0.24,0.27
18.447,-0.15,-0.04,-0.20,0.25
18.457,-0.21,0.04,-0.14,0.26
18.467,-0.32,0.13,-0.08,0.35
18.477,-0.42,0.20,-0.01,0.46
18.487,-0.49,0.25,0.05,0.55
18.497,-0.56,0.26,0.09,0.63
18.507,-0.63,0.25,0.12,0.69
18.517,-0.64,0.25,0.13,0.70
18.527,-0.62,0.22,0.13,0.67
18.537,-0.58,0.16,0.11,0.61
18.547,-0.46,0.06,0.11,0.48
18.557,-0.30,-0.01,0.06,0.30
18.567,-0.14,-0.08,0.02,0.16
18.578,-0.03,-0.12,-0.01,0.13
18.588,-0.00,-0.11,-0.01,0.11
18.598,-0.01,-0.07,-0.03,0.08
18.608,-0.03,-0.01,0.01,0.03
18.618,-0.04,0.05,0.06,0.09
18.628,-0.15,0.11,0.10,0.21
18.638,-0.23,0.17,0.14,0.32
18.648,-0.25,0.20,0.20,0.38
18.658,-0.27,0.15,0.24,0.39
18.668,-0.21,0.06,0.25,0.33
18.678,-0.16,-0.05,0.27,0.32
18.688,-0.09,-0.11,0.26,0.30
18.698,-0.05,-0.18,0.24,0.31
18.708,-0.03,-0.15,0.22,0.26
18.719,-0.02,-0.07,0.17,0.18
18.729,-0.02,0.03,0.12,0.13
18.739,0.03,0.12,0.06,0.13
18.749,0.07,0.17,-0.01,0.18
18.759,0.10,0.13,-0.05,0.18
18.769,0.13,0.05,-0.10,0.17
18.779,0.17,-0.02,-0.12,0.21
18.789,0.21,-0.03,-0.14,0.26
18.799,0.28,-0.01,-0.14,0.31
18.809,0.32,0.02,-0.12,0.34
18.819,0.39,0.04,-0.11,0.40
18.829,0.42,0.06,-0.10,0.44
18.839,0.44,0.02,-0.10,0.45
18.849,0.43,-0.04,-0.06,0.43
18.859,0.37,-0.12,-0.04,0.39
18.870,0.33,-0.14,-0.03,0.36
18.880,0.25,-0.13,-0.02,0.28
18.890,0.14,-0.06,-0.04,0.16
18.900,0.03,0.02,-0.04,0.06
18.910,-0.12,0.10,-0.04,0.16
18.920,-0.24,0.11,-0.03,0.27
18.930,-0.34,0.09,-0.02,0.35
18.940,-0.43,0.04,0.01,0.43
18.950,-0.50,0.03,0.04,0.50
18.960,-0.55,0.04,0.08,0.55
18.970,-0.55,0.12,0.11,0.58
18.980,-0.50,0.22,0.14,0.57
18.990,-0.38,0.28,0.15,0.49
19.001,-0.22,0.23,0.10,0.33
19.011,-0.09,0.13,0.06,0.17
19.021,0.02,-0.01,0.02,0.03
19.031,0.10,-0.15,-0.04,0.18
19.041,0.18,-0.22,-0.11,0.30
19.051,0.28,-0.21,-0.15,0.39
19.061,0.38,-0.18,-0.18,0.45
19.071,0.46,-0.11,-0.20,0.51
19.081,0.48,-0.06,-0.22,0.53
19.091,0.50,-0.01,-0.19,0.54
19.101,0.47,-0.04,-0.16,0.50
19.111,0.38,-0.07,-0.13,0.41
19.121,0.26,-0.10,-0.11,0.30
19.131,0.16,-0.05,-0.09,0.19
19.141,0.05,-0.02,-0.03,0.06
19.151,-0.03,0.04,-0.00,0.05
19.162,-0.10,0.10,-0.00,0.14
19.172,-0.15,0.11,0.00,0.18
19.182,-0.18,0.08,0.00,0.20
19.192,-0.22,0.07,0.01,0.23
19.202,-0.24,0.05,0.03,0.25
19.212,-0.22,0.05,0.01,0.23
19.222,-0.19,0.07,-0.01,0.21
19.232,-0.16,0.06,-0.04,0.17
19.242,-0.14,0.05,-0.05,0.16
19.252,-0.14,0.01,-0.03,0.15
19.262,-0.12,-0.01,-0.02,0.12
19.272,-0.08,-0.02,-0.01,0.08
19.282,-0.02,-0.01,0.01,0.02
19.293,0.04,0.01,0.04,0.06
19.303,0.04,-0.01,0.03,0.06
19.313,0.07,-0.01,0.01,0.07
19.323,0.17,0.02,0.07,0.18
19.333,0.06,-0.02,0.10,0.12
19.343,0.09,-0.00,0.10,0.14
19.353,-0.12,-0.20,-0.09,0.24
19.363,-0.02,-0.14,-0.21,0.25
19.373,0.18,0.03,-0.16,0.24
19.383,0.09,0.13,-0.06,0.17
19.393,-0.12,0.08,-0.04,0.15
19.403,-0.12,0.11,-0.06,0.17
19.413,-0.06,0.07,-0.08,0.12
19.423,-0.05,0.05,-0.05,0.08
19.433,-0.01,0.03,0.02,0.03
19.444,-0.02,-0.01,0.10,0.10
19.454,-0.00,-0.02,0.18,0.18
19.464,-0.02,-0.02,0.19,0.19
19.474,0.01,0.02,0.17,0.17
19.484,0.04,0.11,0.14,0.18
19.494,0.02,0.10,0.14,0.17
19.504,0.04,0.09,0.10,0.14
19.514,0.10,0.09,0.03,0.14
19.524,0.12,0.05,-0.02,0.13
19.534,0.09,-0.04,-0.08,0.12
19.544,0.03,-0.13,-0.10,0.16
19.554,0.03,-0.15,-0.10,0.18
19.564,0.11,-0.12,-0.09,0.19
19.574,0.13,-0.05,-0.06,0.15
19.584,0.07,0.01,0.02,0.07
19.595,-0.05,0.02,0.08,0.10
19.605,-0.23,-0.07,0.14,0.28
19.615,-0.22,-0.05,0.06,0.23
19.625,-0.00,0.04,-0.02,0.04
19.635,0.14,0.07,-0.09,0.18
19.645,0.13,0.04,-0.09,0.16
19.655,0.09,-0.01,-0.08,0.12
19.665,0.05,-0.06,-0.13,0.15
19.675,0.06,-0.06,-0.17,0.19
19.685,0.08,-0.04,-0.18,0.20
19.695,0.11,-0.03,-0.20,0.23
19.705,0.09,0.05,-0.17,0.20
19.715,0.04,0.11,-0.16,0.20
19.726,-0.04,-0.01,-0.27,0.27
19.735,-0.04,-0.14,-0.27,0.31
19.746,0.09,-0.11,-0.24,0.28
19.756,0.20,-0.07,-0.24,0.32
19.766,0.29,-0.04,-0.24,0.38
19.776,0.39,0.03,-0.21,0.44
19.786,0.40,0.04,-0.14,0.42
19.796,0.24,-0.02,-0.11,0.26
19.806,0.11,-0.08,-0.08,0.16
19.816,0.13,-0.02,-0.05,0.14
19.826,0.19,0.06,0.02,0.20
19.836,0.22,0.12,0.14,0.29
19.846,0.24,0.18,0.25,0.40
19.856,0.14,0.15,0.35,0.41
19.866,-0.00,0.03,0.38,0.38
19.876,-0.05,-0.04,0.38,0.38
19.887,0.03,-0.06,0.33,0.33
19.897,0.12,-0.03,0.28,0.31
19.907,0.19,0.01,0.28,0.34
19.917,0.21,0.06,0.30,0.37
19.927,0.13,0.07,0.31,0.34
19.937,0.02,0.04,0.32,0.32
19.947,-0.04,0.06,0.36,0.36
19.957,0.02,0.21,0.39,0.44
19.967,0.04,0.31,0.43,0.53
19.977,-0.12,0.17,0.45,0.50
19.987,-0.33,-0.13,0.41,0.54
19.997,-0.47,-0.41,0.29,0.68
20.007,-0.50,-0.42,0.14,0.67
20.017,-0.35,-0.12,0.00,0.37
20.027,-0.17,0.09,-0.08,0.21
20.038,0.07,0.26,-0.09,0.29
20.048,0.25,0.34,-0.07,0.43
20.058,0.20,0.21,-0.05,0.29
20.068,-0.02,-0.05,0.02,0.06
20.078,-0.09,-0.24,0.04,0.26
20.088,-0.05,-0.29,-0.01,0.29
20.098,0.12,-0.20,-0.07,0.25
20.108,0.26,-0.12,-0.08,0.29
20.118,0.28,0.00,-0.08,0.29
20.128,0.16,0.07,-0.09,0.20
20.138,0.13,0.15,-0.05,0.20
20.148,0.12,0.10,-0.06,0.16
20.158,-0.06,-0.12,-0.06,0.15
20.169,-0.07,-0.11,-0.07,0.15
20.179,-0.07,-0.00,-0.13,0.15
20.189,-0.03,0.21,-0.22,0.30
20.199,-0.04,0.27,-0.31,0.41
20.209,-0.05,0.21,-0.40,0.46
20.219,-0.04,0.04,-0.48,0.49
20.229,-0.01,-0.09,-0.56,0.57
20.239,0.10,-0.12,-0.59,0.62
20.249,0.25,-0.15,-0.61,0.67
20.259,0.43,-0.22,-0.58,0.75
20.269,0.86,-0.04,-0.43,0.96
20.279,0.66,-0.27,-0.30,0.77
20.289,0.18,-0.34,-0.04,0.39
20.299,-0.28,-0.33,0.10,0.44
20.310,-0.67,-0.39,0.14,0.79
20.320,-0.78,-0.38,0.09,0.87
20.330,-0.49,-0.17,0.05,0.52
20.340,-0.32,-0.08,-0.15,0.36
20.350,-0.26,-0.11,-0.26,0.38
20.360,0.12,0.22,-0.20,0.33
20.370,0.30,0.27,-0.23,0.47
20.380,0.44,0.38,-0.12,0.59
20.390,0.29,0.41,0.07,0.50
20.400,0.01,0.36,0.23,0.43
20.410,-0.09,0.45,0.40,0.61
20.420,-0.10,0.44,0.50,0.67
20.430,-0.08,0.41,0.62,0.75
20.440,-0.04,0.36,0.70,0.79
20.450,-0.25,0.30,0.77,0.86
20.460,-0.69,0.17,0.77,1.04
20.471,-0.95,0.09,0.59,1.12
20.481,-0.68,0.22,0.35,0.79
20.491,-0.28,0.31,0.21,0.46
20.501,-0.03,0.24,0.16,0.29
20.511,-0.03,0.10,0.10,0.15
20.521,-0.19,0.04,0.11,0.22
20.531,-0.75,-0.18,-0.06,0.78
20.541,-1.27,-0.65,-0.50,1.52
20.551,-1.02,-0.82,-1.09,1.71
20.561,-0.17,-0.29,-1.33,1.37
20.571,0.67,0.22,-1.25,1.43
20.581,1.17,0.56,-1.00,1.64
20.592,1.15,0.60,-0.73,1.49
20.601,0.83,0.34,-0.52,1.04
20.612,0.60,-0.07,-0.33,0.68
20.622,0.52,-0.38,-0.07,0.65
20.632,0.51,-0.46,0.26,0.73
20.642,0.50,-0.43,0.49,0.82
20.652,0.41,-0.44,0.55,0.81
20.662,0.40,-0.41,0.55,0.80
20.672,0.49,-0.08,0.59,0.77
20.682,0.58,0.29,0.73,0.98
20.692,0.59,0.54,0.91,1.21
20.702,0.45,0.59,1.02,1.26
20.712,0.08,0.45,1.04,1.14
20.722,-0.38,0.21,1.01,1.10
20.732,-0.74,-0.10,0.89,1.16
20.742,-0.97,-0.35,0.68,1.23
20.753,-0.96,-0.50,0.43,1.16
20.763,-0.74,-0.67,0.09,1.01
20.773,-0.34,-0.52,-0.12,0.63
20.783,-0.02,-0.15,-0.26,0.30
20.793,0.09,0.23,-0.37,0.45
20.803,0.00,0.46,-0.42,0.63
20.813,-0.19,0.47,-0.44,0.67
20.823,-0.32,0.40,-0.41,0.66
20.833,-0.39,0.34,-0.34,0.62
20.843,-0.45,0.19,-0.27,0.55
20.853,-0.51,0.01,-0.20,0.55
20.863,-0.59,-0.16,-0.19,0.64
20.873,-0.63,-0.30,-0.23,0.74
20.883,-0.56,-0.41,-0.31,0.76
20.893,-0.35,-0.40,-0.36,0.64
20.904,-0.06,-0.27,-0.34,0.44
20.914,0.27,-0.06,-0.30,0.40
20.924,0.52,0.10,-0.28,0.60
20.934,0.67,0.12,-0.25,0.72
20.944,0.77,0.09,-0.22,0.80
20.954,0.86,0.04,-0.18,0.88
20.964,0.87,-0.06,-0.14,0.89
20.974,0.79,-0.17,-0.10,0.81
20.984,0.65,-0.30,-0.07,0.72
20.994,0.53,-0.29,-0.12,0.62
21.004,0.43,-0.24,-0.17,0.52
21.014,0.34,-0.16,-0.18,0.41
21.024,0.27,-0.04,-0.18,0.33
21.035,0.21,0.10,-0.12,0.26
21.044,0.10,0.22,-0.07,0.25
21.055,-0.07,0.22,-0.00,0.23
21.065,-0.26,0.18,0.03,0.32
21.075,-0.43,0.10,0.05,0.44
21.085,-0.56,0.03,0.02,0.56
21.095,-0.61,-0.03,-0.03,0.61
21.105,-0.58,-0.03,-0.05,0.58
21.115,-0.49,-0.01,-0.03,0.49
21.125,-0.38,0.05,-0.05,0.39
21.135,-0.29,0.11,0.00,0.31
21.145,-0.16,0.29,0.10,0.34
21.155,-0.09,0.33,0.23,0.41
21.165,-0.07,0.22,0.35,0.42
21.175,0.02,0.10,0.39,0.41
21.185,0.10,-0.05,0.51,0.53
21.196,0.16,-0.15,0.61,0.65
21.206,0.18,-0.13,0.66,0.70
21.216,0.18,0.09,0.65,0.68
21.226,0.12,0.26,0.60,0.66
21.236,0.01,0.22,0.48,0.53
21.246,-0.08,0.09,0.36,0.38
21.256,-0.29,-0.03,0.27,0.39
21.266,-0.28,-0.27,0.19,0.43
21.276,-0.20,-0.22,0.14,0.32
21.286,-0.18,-0.02,0.04,0.19
21.296,-0.10,0.27,-0.06,0.29
21.306,-0.15,0.41,-0.12,0.45
21.316,-0.09,0.68,-0.08,0.69
21.326,-0.73,0.29,-0.20,0.81
21.337,-0.81,0.11,-0.12,0.83
21.347,-1.08,-0.21,-0.25,1.13
21.357,-1.12,-0.23,-0.36,1.20
21.367,-0.57,0.15,-0.46,0.75
21.377,-0.85,-0.29,-0.79,1.20
21.387,-0.64,-0.20,-0.82,1.06
21.397,-0.07,0.38,-0.66,0.77
21.407,-0.38,-0.04,-0.71,0.81
21.417,-0.73,-0.52,-0.70,1.14
21.427,-0.64,-0.47,-0.62,1.01
21.437,-0.39,-0.42,-0.46,0.74
21.447,-0.27,-0.44,-0.27,0.58
21.457,-0.24,-0.39,-0.19,0.49
21.467,-0.17,-0.31,-0.16,0.39
21.478,-0.17,-0.37,-0.25,0.48
21.487,-0.13,-0.51,-0.48,0.71
21.498,0.01,-0.60,-0.61,0.86
21.508,0.30,-0.59,-0.60,0.89
21.518,0.53,-0.55,-0.54,0.93
21.528,0.67,-0.37,-0.40,0.86
21.538,0.84,0.03,-0.26,0.88
21.548,0.86,0.26,-0.13,0.91
21.558,0.75,0.22,-0.01,0.78
21.568,0.59,-0.06,0.17,0.62
21.578,0.40,-0.53,0.31,0.73
21.588,0.41,-0.89,0.29,1.03
21.598,0.56,-1.04,0.26,1.21
21.608,0.78,-0.66,0.16,1.04
21.618,0.73,-0.57,0.10,0.93
21.628,0.61,-0.69,0.21,0.95
21.638,0.40,-0.78,0.55,1.03
21.649,0.10,-0.94,1.04,1.40
21.659,-0.28,-1.08,1.37,1.77
21.669,-0.64,-1.09,1.49,1.96
21.679,-0.95,-1.08,1.44,2.04
21.689,-1.16,-0.90,1.29,1.95
21.699,-1.22,-0.63,1.06,1.73
21.709,-1.59,-0.75,0.61,1.86
21.719,-1.90,-1.01,0.25,2.16
21.729,-1.91,-1.37,0.03,2.35
21.740,-1.76,-1.50,-0.19,2.32
21.749,-1.37,-1.05,-0.29,1.75
21.759,-0.89,-0.65,-0.39,1.17
21.769,-0.52,-0.35,-0.57,0.85
21.780,-0.08,-0.04,-0.75,0.75
21.790,0.19,0.04,-0.95,0.97
21.800,0.29,-0.22,-1.23,1.29
21.810,0.29,-0.52,-1.41,1.53
21.820,0.58,-0.56,-1.44,1.65
21.830,0.94,-0.29,-1.31,1.64
21.840,1.30,0.28,-0.97,1.64
21.850,1.57,0.78,-0.59,1.85
21.860,1.41,0.88,-0.25,1.68
21.870,0.94,0.69,0.10,1.17
21.881,0.57,0.53,0.48,0.91
21.890,0.18,0.26,0.75,0.82
21.900,-0.24,-0.13,0.97,1.01
21.910,-0.55,-0.17,1.25,1.37
21.920,-0.59,0.13,1.38,1.51
21.931,-0.69,0.32,1.36,1.56
21.941,-0.97,0.27,1.30,1.65
21.951,-1.21,0.03,1.34,1.81
21.961,-1.33,-0.22,1.45,1.98
21.971,-1.24,-0.23,1.48,1.95
21.981,-1.07,-0.01,1.20,1.61
21.991,-0.87,0.33,0.80,1.23
22.001,-0.63,0.60,0.33,0.93
22.011,-0.44,0.66,-0.09,0.80
22.021,-0.40,0.42,-0.67,0.89
22.031,-0.47,0.11,-1.44,1.52
22.041,-0.28,0.03,-1.61,1.63
22.051,0.26,0.17,-1.50,1.53
22.061,0.62,0.30,-1.13,1.32
22.071,0.91,0.42,-0.67,1.20
22.082,0.81,-0.03,-0.23,0.84
22.092,0.79,-0.13,0.51,0.95
22.102,0.91,-0.03,1.28,1.57
22.112,1.04,0.13,1.65,1.96
22.122,0.37,-0.22,0.93,1.03
22.132,-1.04,-0.80,-0.75,1.51
22.142,-1.66,-0.67,-1.96,2.66
22.152,-1.04,0.02,-1.97,2.23
22.162,-0.29,0.37,-1.42,1.49
22.172,0.18,0.50,-0.83,0.98
22.182,0.59,0.68,-0.46,1.01
22.192,1.00,0.72,-0.29,1.27
22.202,1.14,0.74,-0.24,1.38
22.213,1.04,0.65,-0.09,1.23
22.222,1.00,0.35,0.09,1.07
22.233,0.94,0.08,0.10,0.95
22.243,0.72,-0.10,-0.05,0.73
22.253,0.55,-0.05,-0.18,0.58
22.263,0.26,0.01,-0.33,0.42
22.273,0.05,0.33,-0.35,0.49
22.283,-0.18,0.65,-0.38,0.78
22.293,-0.47,0.81,-0.43,1.03
22.303,-0.61,0.98,-0.22,1.18
22.313,-0.69,0.92,0.00,1.16
22.323,-0.66,0.73,0.08,0.99
22.333,-0.62,0.65,0.10,0.91
22.343,-0.68,0.44,-0.01,0.81
22.353,-0.61,0.07,-0.10,0.63
22.364,-0.34,-0.09,-0.15,0.38
22.374,0.20,0.06,-0.10,0.23
22.384,0.76,0.26,-0.09,0.81
22.394,0.93,0.80,-0.09,1.23
22.404,0.51,1.15,-0.25,1.28
22.414,-0.52,0.81,-0.66,1.17
22.424,-1.53,0.42,-1.04,1.90
22.434,-1.74,0.52,-1.31,2.24
22.444,-1.23,0.70,-1.14,1.82
22.454,-0.80,0.89,-0.99,1.55
22.464,-0.58,0.86,-0.49,1.15
22.474,-0.32,1.15,-0.03,1.19
22.484,-0.13,1.17,0.34,1.22
22.494,0.19,0.98,0.56,1.15
22.505,0.69,0.88,0.46,1.21
22.515,1.25,0.62,0.17,1.40
22.525,1.84,0.50,-0.06,1.90
22.535,2.16,0.60,-0.04,2.24
22.545,1.73,0.53,0.23,1.83
22.555,0.74,0.24,0.24,0.82
22.565,-0.01,-0.00,-0.03,0.03
22.575,-0.05,-0.21,-0.27,0.34
22.585,0.22,-0.58,-0.40,0.74
22.595,0.33,-0.70,-0.55,0.95
22.605,0.05,-0.72,-0.72,1.02
22.615,-0.66,-0.70,-0.85,1.28
22.625,-1.36,-0.61,-0.86,1.72
22.635,-1.54,-0.53,-0.83,1.83
22.646,-1.18,-0.48,-0.73,1.47
22.656,-0.68,-0.41,-0.45,0.91
22.666,-0.24,-0.35,-0.23,0.48
22.676,0.14,-0.34,0.13,0.39
22.686,0.61,-0.51,0.28,0.84
22.696,0.36,-0.01,0.35,0.50
22.706,-0.01,0.32,0.41,0.53
22.716,-0.40,-0.17,0.31,0.53
22.726,-0.64,-1.22,-0.07,1.38
22.736,0.24,-2.43,0.12,2.44
22.746,1.55,-3.75,0.86,4.14
22.756,0.97,-3.03,0.36,3.20
22.766,-0.75,-0.99,-0.50,1.34
22.776,-1.46,0.14,-1.08,1.81
22.787,0.46,-1.70,-0.77,1.92
22.797,3.27,-5.90,0.17,6.75
22.807,1.20,-5.27,-1.13,5.52
22.817,-0.27,-4.70,-2.43,5.30
22.827,-1.68,-4.09,-3.57,5.68
22.837,-2.28,-3.32,-4.28,5.88
22.847,-1.86,-1.77,-4.66,5.32
22.857,-1.13,-0.09,-4.70,4.83
22.867,-0.84,0.56,-4.14,4.26
22.877,-0.53,0.53,-4.27,4.34
22.887,-0.54,0.45,-4.34,4.40
22.897,-0.57,0.34,-3.89,3.95
22.907,0.20,0.65,-2.80,2.88
22.917,1.41,1.55,-1.12,2.37
22.927,2.24,2.26,0.44,3.21
22.937,2.38,2.25,1.59,3.64
22.948,2.12,1.80,2.30,3.62
22.958,1.81,1.35,2.67,3.50
22.968,1.62,1.09,2.89,3.49
22.978,1.74,1.15,3.28,3.89
22.988,2.23,1.27,3.90,4.66
22.998,3.09,1.67,4.56,5.76
23.008,3.93,2.21,4.96,6.71
23.018,4.34,2.43,4.90,6.98
23.028,4.19,2.49,4.48,6.62
23.038,3.60,2.36,3.91,5.82
23.048,2.77,2.04,3.49,4.90
23.058,2.00,1.77,3.32,4.26
23.068,1.63,1.63,3.44,4.14
23.079,1.61,1.56,3.58,4.23
23.089,1.97,1.65,3.63,4.45
23.099,2.52,1.96,3.51,4.74
23.109,2.84,2.22,3.17,4.80
23.119,2.71,2.24,2.75,4.46
23.129,2.08,1.88,2.37,3.67
23.139,1.25,1.52,2.18,2.94
23.149,0.50,1.28,2.27,2.65
23.159,-0.05,1.08,2.48,2.70
23.169,-0.36,0.80,2.59,2.73
23.179,-0.34,0.68,2.65,2.75
23.189,-0.17,0.71,2.51,2.61
23.199,-0.17,0.56,2.23,2.31
23.209,-0.25,0.45,1.91,1.98
23.219,-0.56,0.18,1.52,1.63
23.230,-0.97,-0.19,1.14,1.51
23.240,-1.18,-0.31,1.05,1.61
23.250,-1.25,-0.32,1.14,1.72
23.260,-1.30,-0.35,1.22,1.82
23.270,-1.33,-0.45,1.20,1.85
23.280,-1.21,-0.59,1.14,1.77
23.290,-1.02,-0.58,1.06,1.58
23.300,-1.15,-0.71,0.82,1.58
23.310,-1.61,-1.03,0.37,1.95
23.320,-2.14,-1.39,-0.08,2.55
23.330,-2.44,-1.52,-0.28,2.89
23.340,-2.63,-1.58,-0.36,3.09
23.350,-2.66,-1.62,-0.42,3.15
23.360,-2.40,-1.58,-0.44,2.90
23.371,-1.92,-1.31,-0.26,2.34
23.381,-1.55,-1.05,-0.12,1.87
23.391,-1.56,-1.17,-0.26,1.97
23.401,-1.85,-1.57,-0.64,2.51
23.411,-2.27,-2.12,-1.02,3.27
23.421,-2.55,-2.47,-1.19,3.74
23.431,-2.57,-2.49,-1.12,3.75
23.441,-2.35,-2.20,-0.94,3.35
23.451,-2.05,-1.75,-0.83,2.82
23.461,-1.74,-1.35,-0.76,2.33
23.471,-0.12,-1.17,0.24,1.20
23.481,4.00,-1.72,3.60,5.65
23.491,6.15,-2.51,7.36,9.92
23.501,2.94,-3.47,2.86,5.37
23.511,-1.76,-1.98,-0.78,2.76
23.521,-3.08,-1.51,-1.07,3.59
23.532,-3.44,-1.04,-1.09,3.76
23.542,-3.64,-0.77,-1.28,3.93
23.552,-3.63,-0.70,-1.54,4.01
23.562,-3.61,-0.63,-1.99,4.17
23.572,-3.61,-0.38,-2.41,4.36
23.582,-3.20,-0.35,-3.07,4.44
23.592,-2.85,-0.22,-3.72,4.69
23.602,-2.40,0.03,-4.18,4.82
23.612,-0.88,0.10,-4.58,4.66
23.622,2.76,-0.20,-3.79,4.70
23.632,7.81,-1.32,-1.84,8.13
23.642,9.49,-3.01,0.91,10.00
23.652,5.11,-3.67,2.52,6.78
23.662,0.77,-3.76,0.11,3.84
23.673,0.13,-2.68,-2.71,3.81
23.683,-0.78,-2.17,-3.34,4.06
23.693,-0.67,-2.51,-3.13,4.07
23.703,-0.69,-2.50,-1.37,2.93
23.713,-0.41,-1.87,0.63,2.01
23.723,0.17,-2.04,1.26,2.41
23.733,0.31,-2.58,0.78,2.71
23.743,0.23,-2.71,0.21,2.73
23.753,0.67,-2.50,0.03,2.59
23.763,0.55,-2.51,0.05,2.57
23.773,0.23,-1.99,0.14,2.01
23.783,0.92,-1.06,0.38,1.45
23.793,1.11,-0.81,0.26,1.40
23.803,0.56,-0.88,0.18,1.06
23.814,0.35,-1.06,0.39,1.18
23.824,0.48,-1.28,0.43,1.44
23.834,0.40,-1.52,0.70,1.73
23.844,0.43,-1.77,0.94,2.05
23.854,0.68,-1.99,0.85,2.27
23.864,0.64,-1.84,0.99,2.18
23.874,0.50,-1.89,1.52,2.48
23.884,0.23,-2.12,1.39,2.55
23.894,-0.20,-1.87,0.80,2.04
23.904,-0.39,-1.61,0.03,1.66
23.914,0.29,-1.31,-0.70,1.51
23.924,0.70,-0.97,-0.53,1.31
23.934,1.10,-0.68,-0.27,1.32
23.944,1.17,-0.31,-0.67,1.38
23.955,0.64,0.13,-0.81,1.04
23.965,0.13,0.57,-0.71,0.92
23.975,0.07,0.46,-0.55,0.72
23.985,0.06,0.28,-0.89,0.93
23.995,0.24,0.18,-1.19,1.23
24.005,0.03,0.15,-0.93,0.94
24.015,-0.32,0.24,-0.13,0.42
24.025,-0.20,0.68,0.24,0.75
24.035,0.08,0.56,-0.40,0.69
24.045,0.01,0.38,-0.92,1.00
24.055,-0.01,0.18,-0.90,0.92
24.065,0.09,0.13,-0.66,0.68
24.075,0.02,0.21,-0.47,0.51
24.085,-0.14,0.32,-0.42,0.55
24.095,-0.20,0.31,-0.42,0.56
24.106,-0.20,0.22,-0.48,0.56
24.116,-0.32,0.18,-0.50,0.62
24.126,-0.21,0.25,-0.56,0.65
24.136,0.00,0.39,-0.66,0.77
24.146,-0.13,0.42,-0.57,0.72
24.156,-0.07,0.43,-0.50,0.67
24.166,0.12,0.35,-0.46,0.59
24.176,0.23,0.17,-0.33,0.44
24.186,0.28,-0.05,-0.19,0.34
24.196,0.30,-0.26,-0.15,0.43
24.206,0.34,-0.39,-0.06,0.53
24.216,0.27,-0.36,0.05,0.45
24.226,0.22,-0.31,0.13,0.40
24.236,0.20,-0.32,0.40,0.55
24.247,0.10,-0.32,0.66,0.74
24.257,0.05,-0.31,0.59,0.67
24.267,0.02,-0.25,0.60,0.66
24.277,0.01,-0.20,0.68,0.71
24.287,0.08,-0.18,0.60,0.63
24.297,0.10,-0.16,0.36,0.41
24.307,0.21,-0.14,0.13,0.29
24.317,0.32,-0.09,-0.05,0.34
24.327,0.34,-0.05,-0.16,0.38
24.337,0.32,-0.01,-0.23,0.39
24.347,0.27,0.01,-0.22,0.35
24.357,0.22,-0.02,-0.14,0.26
24.367,0.18,-0.07,-0.13,0.24
24.377,0.17,-0.09,-0.13,0.23
24.387,0.18,-0.07,-0.12,0.23
24.398,0.22,-0.04,-0.14,0.26
24.407,0.25,-0.06,-0.18,0.31
24.418,0.23,-0.09,-0.19,0.31
24.428,0.16,-0.09,-0.14,0.23
24.438,0.09,-0.10,-0.08,0.15
24.448,0.04,-0.13,0.02,0.14
24.458,-0.00,-0.13,0.07,0.15
24.468,-0.03,-0.10,0.06,0.12
24.478,-0.02,-0.09,0.01,0.09
24.488,0.03,-0.10,-0.00,0.10
24.498,0.08,-0.06,-0.00,0.10
24.508,0.10,-0.08,-0.02,0.13
24.518,0.08,-0.10,-0.12,0.17
24.528,0.09,-0.09,-0.18,0.23
24.538,0.10,-0.05,-0.23,0.26
24.549,0.05,-0.01,-0.21,0.21
24.559,-0.03,0.03,-0.17,0.17
24.569,-0.06,0.06,-0.14,0.17
24.579,-0.06,0.03,-0.10,0.12
24.589,-0.03,-0.04,-0.10,0.11
24.599,0.05,-0.08,-0.13,0.16
24.609,0.10,-0.14,-0.10,0.20
24.619,-0.05,0.04,-0.35,0.36
24.629,-0.23,0.03,-0.16,0.28
24.639,-0.30,0.00,0.11,0.32
