time,ax,ay,az,atotal
0.000,-1.24,-0.45,-0.33,1.36
0.010,-1.15,-0.27,-0.79,1.43
0.020,-1.17,-0.05,-1.12,1.62
0.030,-1.06,0.16,-1.33,1.71
0.040,-0.99,0.37,-1.50,1.83
0.050,-0.95,0.38,-1.36,1.70
0.061,-1.07,0.29,-0.89,1.42
0.070,-0.96,0.01,-0.73,1.20
0.081,-0.89,-0.10,-0.75,1.17
0.091,-1.08,0.10,-0.47,1.18
0.101,-1.40,0.40,0.03,1.45
0.111,-1.53,0.37,0.38,1.62
0.121,-1.28,0.06,0.54,1.39
0.131,-0.93,-0.18,0.60,1.12
0.141,-0.82,-0.23,0.58,1.02
0.151,-0.90,-0.12,0.56,1.07
0.161,-1.00,0.11,0.48,1.12
0.171,-1.01,0.20,0.29,1.07
0.182,-0.91,0.13,0.19,0.94
0.191,-0.81,0.03,0.17,0.82
0.202,-0.76,-0.07,0.20,0.79
0.212,-0.57,-0.19,0.19,0.62
0.222,-0.23,-0.52,0.17,0.59
0.232,-0.40,-0.57,0.38,0.79
0.242,-0.46,-0.62,0.47,0.91
0.252,-0.37,-0.71,0.41,0.90
0.262,-0.32,-0.70,0.35,0.84
0.272,-0.30,-0.69,0.22,0.79
0.282,-0.25,-0.67,-0.08,0.72
0.292,-0.15,-0.66,-0.43,0.81
0.302,0.00,-0.65,-0.63,0.91
0.312,-0.03,-0.53,-0.40,0.66
0.322,-0.17,-0.34,-0.20,0.43
0.332,-0.33,-0.06,-0.08,0.35
0.342,-0.38,0.17,0.12,0.43
0.353,-0.50,0.35,0.24,0.65
0.363,-0.84,0.37,0.20,0.94
0.373,-1.05,0.30,0.04,1.09
0.383,-0.96,0.21,-0.21,1.01
0.393,-0.71,0.09,-0.41,0.83
0.403,-0.22,0.66,-0.10,0.70
0.413,-0.23,1.15,0.25,1.20
0.423,-0.51,1.01,0.31,1.17
0.433,-0.52,0.70,0.01,0.87
0.443,-0.12,0.39,-0.28,0.49
0.453,0.33,0.07,-0.30,0.45
0.463,0.42,-0.42,-0.15,0.62
0.473,0.52,-0.84,-0.04,0.99
0.483,0.43,-1.09,0.49,1.27
0.493,-0.03,-1.39,1.59,2.11
0.504,0.89,-0.82,-1.20,1.70
0.514,0.37,-0.36,-0.97,1.10
0.524,0.44,0.01,-0.58,0.73
0.534,0.33,0.15,-0.76,0.84
0.544,0.36,0.16,-0.64,0.75
0.554,1.15,-0.59,-0.69,1.46
0.564,1.08,-0.88,-0.78,1.59
0.574,1.13,-0.40,-0.77,1.43
0.584,1.47,0.06,-0.74,1.64
0.594,1.94,0.53,-0.25,2.02
0.604,1.91,0.83,-0.49,2.14
0.614,2.07,0.25,-1.03,2.33
0.624,2.21,-0.38,-1.27,2.58
0.635,1.86,-0.61,-0.96,2.18
0.645,1.41,-0.31,-0.79,1.65
0.654,0.45,0.35,-1.74,1.83
0.665,-1.27,1.83,-3.27,3.95
0.675,-2.07,2.06,-1.67,3.37
0.685,-1.07,1.44,-0.89,2.00
0.695,-0.09,0.76,-1.39,1.58
0.705,1.27,0.49,-2.15,2.54
0.715,2.91,0.14,-2.56,3.88
0.725,4.67,-0.14,-2.08,5.11
0.735,5.35,-0.35,-1.60,5.60
0.745,4.78,-0.45,-1.31,4.98
0.755,4.32,-0.71,-1.68,4.69
0.765,3.67,-1.18,-2.42,4.55
0.775,2.93,-1.67,-2.96,4.48
0.786,2.79,-2.01,-3.40,4.83
0.795,3.35,-2.21,-3.76,5.50
0.806,3.91,-2.43,-4.14,6.19
0.816,3.83,-2.80,-4.41,6.47
0.826,3.19,-3.04,-4.50,6.30
0.836,2.40,-3.17,-4.38,5.91
0.846,1.59,-3.35,-4.09,5.52
0.856,0.91,-3.67,-3.85,5.40
0.866,0.34,-3.93,-3.58,5.32
0.876,-0.13,-4.01,-3.28,5.18
0.886,-0.56,-4.01,-3.00,5.04
0.896,-1.14,-3.91,-2.74,4.91
0.906,-1.89,-3.84,-2.30,4.86
0.916,-2.45,-3.91,-1.69,4.91
0.926,-2.53,-4.18,-1.14,5.02
0.936,-2.24,-4.40,-0.67,4.99
0.947,-1.82,-4.38,-0.25,4.74
0.957,-1.47,-4.23,-0.00,4.48
0.967,-1.31,-3.95,0.08,4.16
0.977,-1.22,-3.60,0.26,3.81
0.987,-1.06,-3.38,0.71,3.62
0.997,-0.75,-3.25,1.67,3.73
1.007,-0.26,-3.09,2.89,4.24
1.017,0.26,-2.82,3.89,4.81
1.027,0.56,-2.58,4.47,5.19
1.037,0.65,-2.26,4.73,5.28
1.048,0.67,-1.85,4.91,5.28
1.057,0.77,-1.50,5.07,5.34
1.067,0.89,-1.24,5.26,5.48
1.077,1.09,-1.08,5.58,5.78
1.088,1.43,-0.94,5.85,6.09
1.098,1.82,-0.72,5.77,6.10
1.108,2.11,-0.47,5.45,5.86
1.118,2.22,-0.17,4.86,5.35
1.128,2.27,0.16,4.16,4.74
1.138,2.25,0.39,3.45,4.14
1.148,2.13,0.46,2.83,3.57
1.158,1.99,0.53,2.41,3.17
1.168,2.09,0.69,2.33,3.21
1.178,2.57,1.02,2.52,3.74
1.188,2.99,1.30,2.81,4.30
1.198,3.36,1.44,3.05,4.76
1.208,3.74,1.58,3.09,5.10
1.219,3.87,1.60,3.01,5.15
1.229,3.66,1.49,2.82,4.86
1.238,3.37,1.36,2.59,4.46
1.249,3.19,1.35,2.35,4.19
1.259,3.12,1.43,2.13,4.04
1.269,3.29,1.65,2.04,4.21
1.279,3.55,1.84,2.03,4.49
1.289,3.69,1.79,1.95,4.55
1.299,3.92,1.68,1.51,4.52
1.309,3.94,1.64,0.95,4.37
1.319,3.14,1.50,0.75,3.56
1.329,2.56,1.44,0.28,2.95
1.339,2.00,1.45,-0.14,2.47
1.349,1.66,1.42,-0.52,2.24
1.359,1.62,1.42,-0.83,2.31
1.370,1.68,1.41,-1.08,2.45
1.379,1.76,1.36,-1.22,2.54
1.390,1.73,1.25,-1.44,2.57
1.400,1.81,1.22,-2.74,3.50
1.410,1.93,1.31,-4.20,4.80
1.420,1.88,1.31,-4.78,5.30
1.430,1.46,1.20,-4.57,4.94
1.440,0.99,0.82,-3.44,3.67
1.450,0.68,0.24,-1.59,1.75
1.460,0.74,-0.27,0.09,0.79
1.470,0.93,-0.57,1.19,1.61
1.480,0.95,-0.50,1.43,1.79
1.490,0.53,-0.25,0.99,1.15
1.500,0.08,-0.07,0.21,0.24
1.510,0.08,-0.08,-0.53,0.55
1.520,0.11,-0.25,-0.33,0.42
1.531,0.41,-0.22,1.07,1.16
1.541,1.35,0.34,1.17,1.82
1.551,2.22,0.96,-0.86,2.57
1.561,3.42,1.53,-1.04,3.89
1.571,3.85,1.36,-1.12,4.24
1.581,3.61,0.94,-0.88,3.83
1.591,2.74,0.64,-0.57,2.87
1.601,1.85,0.44,-0.64,2.01
1.611,1.57,0.14,-0.23,1.60
1.621,1.58,-0.42,0.29,1.67
1.631,0.48,-0.91,0.34,1.08
1.641,-0.15,-1.16,0.63,1.33
1.652,-1.69,-1.21,0.06,2.08
1.662,-2.74,-1.06,-0.94,3.08
1.672,-2.85,-1.09,-0.99,3.21
1.681,-2.55,-1.17,-1.00,2.98
1.692,-2.55,-1.20,-0.98,2.98
1.702,-2.71,-1.34,-0.88,3.15
1.712,-2.73,-1.41,-0.13,3.07
1.722,-2.57,-1.20,0.63,2.91
1.732,-2.16,-1.12,1.02,2.64
1.742,-2.11,-1.55,1.47,3.00
1.752,-2.60,-0.47,2.22,3.45
1.762,-2.56,0.70,1.60,3.09
1.772,-2.08,0.73,0.78,2.34
1.782,-1.53,0.54,0.59,1.73
1.792,-0.79,0.71,0.64,1.24
1.802,0.10,1.24,0.71,1.44
1.813,0.96,1.90,0.54,2.20
1.823,1.74,2.22,0.16,2.83
1.833,2.31,2.20,-0.05,3.19
1.843,2.68,2.06,-0.06,3.39
1.853,1.96,1.94,-1.16,2.99
1.863,1.04,2.11,-2.19,3.21
1.873,0.75,2.31,-2.16,3.25
1.883,1.47,2.36,-1.72,3.26
1.893,2.56,2.23,-1.32,3.64
1.903,2.83,2.16,-1.15,3.74
1.913,2.23,2.23,-1.94,3.70
1.923,1.69,2.38,-2.21,3.66
1.933,1.33,2.39,-1.17,2.97
1.943,0.24,2.01,-0.82,2.19
1.953,-0.90,1.72,-0.62,2.03
1.963,-1.57,1.23,-0.20,2.01
1.974,-1.77,0.57,-0.35,1.90
1.984,-1.54,0.27,-0.59,1.67
1.994,-1.37,0.13,-0.19,1.39
2.004,-1.12,0.01,-0.66,1.30
2.014,-0.72,0.83,-1.02,1.50
2.024,0.01,1.77,1.77,2.51
2.034,1.06,1.61,3.83,4.29
2.044,0.91,0.32,4.07,4.18
2.054,0.13,-0.55,3.35,3.39
2.064,-0.84,-0.42,2.38,2.56
2.074,-2.06,-0.16,1.19,2.38
2.084,-2.98,-0.27,0.20,3.00
2.095,-3.70,-0.49,-0.50,3.76
2.105,-3.88,-0.77,-1.21,4.14
2.115,-3.95,-0.78,-1.40,4.26
2.125,-4.35,-0.52,-1.19,4.54
2.135,-4.72,-0.74,-0.31,4.79
2.145,-5.35,-1.22,0.74,5.53
2.155,-3.93,-2.66,1.62,5.01
2.165,-2.39,-4.04,2.23,5.20
2.175,-3.32,-3.57,2.14,5.33
2.185,-2.29,-3.62,1.56,4.56
2.195,-0.94,-3.50,0.81,3.71
2.205,1.75,-3.52,0.82,4.01
2.215,4.80,-2.84,1.15,5.69
2.225,5.43,-1.48,1.38,5.79
2.236,4.99,-1.30,1.46,5.36
2.245,4.06,-2.17,1.87,4.97
2.256,3.98,-1.94,1.48,4.67
2.266,3.26,-1.76,0.48,3.74
2.276,1.68,-1.18,-0.86,2.22
2.286,0.61,-0.42,-2.43,2.54
2.296,0.20,0.32,-4.13,4.15
2.306,0.12,0.80,-4.40,4.47
2.316,0.01,0.97,-2.31,2.50
2.326,-0.05,0.86,0.02,0.87
2.336,0.09,0.56,1.22,1.35
2.346,0.26,0.22,1.27,1.32
2.356,0.37,-0.12,0.60,0.72
2.366,0.30,-0.30,-0.21,0.47
2.377,0.07,-0.35,-0.80,0.88
2.386,0.17,-0.46,-1.12,1.23
2.397,0.52,-0.52,-0.89,1.15
2.407,0.50,-0.57,-0.74,1.06
2.417,-0.57,0.01,-0.90,1.06
2.427,-1.08,0.88,-0.92,1.67
2.437,-1.02,1.15,-0.32,1.57
2.447,-0.37,0.89,0.46,1.07
2.457,0.30,0.36,0.76,0.90
2.467,-0.21,-0.22,0.61,0.68
2.477,-0.07,-0.14,-0.49,0.52
2.487,-0.63,0.16,-0.57,0.86
2.497,-0.06,-0.07,-0.65,0.66
2.507,-0.02,-0.42,-0.54,0.69
2.517,0.31,-0.65,-0.21,0.75
2.527,-0.42,-0.94,0.27,1.06
2.537,-0.49,-1.31,0.16,1.41
2.548,-1.02,-1.43,-0.00,1.75
2.558,-1.87,-1.48,-0.20,2.39
2.568,-2.03,-1.35,-0.03,2.43
2.578,-1.89,-1.02,0.40,2.18
2.588,-1.23,-0.17,0.68,1.42
2.598,-0.67,0.73,0.35,1.05
2.608,-0.00,0.97,-0.41,1.05
2.618,0.81,0.72,-0.83,1.37
2.628,-0.12,0.88,-1.57,1.80
2.638,0.26,0.72,-1.32,1.52
2.648,0.30,0.73,-0.48,0.93
2.658,0.17,0.66,0.17,0.71
2.668,0.42,0.47,0.71,0.95
2.678,0.57,0.12,0.95,1.11
2.688,0.58,-0.29,0.94,1.14
2.699,-0.25,-0.56,0.61,0.86
2.709,-1.32,-0.52,0.07,1.42
2.719,-1.96,-0.40,-0.24,2.02
2.729,-1.87,-0.28,-0.31,1.92
2.739,-1.23,0.02,-0.14,1.24
2.749,0.07,0.40,0.04,0.41
2.759,1.32,0.59,0.12,1.45
2.769,2.15,0.65,0.11,2.25
2.779,1.94,0.79,-0.44,2.14
2.789,1.22,0.73,-0.76,1.62
2.799,1.07,0.80,-0.66,1.49
2.809,1.36,1.26,-0.43,1.90
2.820,1.91,1.91,-0.33,2.72
2.829,2.47,2.30,-0.34,3.39
2.840,2.24,2.18,-0.42,3.16
2.850,1.64,1.75,-0.59,2.47
2.860,0.93,1.19,-0.81,1.71
2.870,0.19,0.68,-0.80,1.06
2.880,0.02,0.34,-0.50,0.60
2.890,0.12,0.39,-0.41,0.58
2.900,0.46,0.39,-0.11,0.61
2.910,0.92,0.17,0.28,0.98
2.920,0.87,0.20,0.37,0.96
2.930,-0.48,1.71,0.36,1.81
2.940,-0.94,2.19,0.10,2.38
2.950,-1.55,2.56,-0.09,2.99
2.960,-1.41,2.33,0.06,2.72
2.970,-2.11,2.63,0.23,3.38
2.980,-2.68,2.77,0.37,3.87
2.990,-2.48,1.80,0.48,3.10
3.001,-2.96,0.26,0.56,3.02
3.011,-3.77,-0.87,0.79,3.95
3.021,-3.90,-0.93,0.80,4.09
3.031,-2.80,-0.06,0.54,2.85
3.041,-1.85,0.61,0.57,2.03
3.051,-1.44,1.12,0.60,1.92
3.061,-1.22,1.30,0.22,1.80
3.071,-0.85,0.98,-0.70,1.47
3.081,-0.73,0.26,-2.06,2.21
3.091,-0.74,-0.30,-2.81,2.92
3.101,-1.13,-0.29,-2.15,2.44
3.111,-1.73,-0.16,-1.32,2.19
3.122,-2.09,-0.49,-0.23,2.16
3.132,-2.51,-0.86,0.58,2.71
3.142,-2.60,-1.17,0.86,2.98
3.152,-2.63,-1.28,0.76,3.02
3.162,-2.61,-1.45,0.86,3.11
3.172,-2.49,-1.47,0.81,3.01
3.182,-2.21,-1.69,0.68,2.87
3.192,-1.71,-1.68,0.54,2.46
3.202,-1.18,-1.64,0.08,2.03
3.212,-0.74,-1.52,-0.49,1.76
3.222,-0.47,-1.54,-0.97,1.88
3.232,-0.08,-1.55,-1.16,1.94
3.242,0.22,-1.41,-1.25,1.90
3.253,0.61,-1.17,-1.18,1.77
3.262,1.21,-0.89,-1.00,1.80
3.273,1.88,-0.67,-0.99,2.23
3.283,1.92,-0.80,-0.92,2.27
3.293,1.80,-0.91,-0.59,2.10
3.303,1.66,-1.10,-0.26,2.01
3.313,1.54,-1.58,0.29,2.23
3.323,1.51,-2.18,0.80,2.77
3.333,1.44,-2.61,1.09,3.18
3.343,1.31,-2.75,1.15,3.26
3.353,1.20,-2.62,1.08,3.08
3.363,1.17,-2.34,1.00,2.80
3.373,1.26,-1.87,0.83,2.40
3.383,1.41,-1.52,0.62,2.16
3.393,1.51,-1.29,0.29,2.01
3.404,1.58,-1.10,0.03,1.93
3.413,1.40,-0.92,-0.25,1.69
3.424,1.03,-0.75,-0.55,1.39
3.434,0.56,-0.66,-0.88,1.23
3.444,0.07,-0.51,-1.15,1.26
3.454,-0.33,-0.24,-1.27,1.33
3.464,-0.60,0.08,-1.23,1.37
3.474,-0.67,0.34,-1.03,1.28
3.484,-0.65,0.30,-0.80,1.07
3.494,-0.53,0.22,-0.60,0.83
3.504,-0.21,0.23,-0.42,0.52
3.514,0.26,0.38,-0.25,0.53
3.524,0.85,0.53,-0.08,1.01
3.534,1.27,0.58,0.05,1.40
3.544,1.44,0.62,0.15,1.57
3.554,1.36,0.44,0.16,1.44
3.565,1.30,0.12,-0.02,1.30
3.575,1.32,-0.07,-0.13,1.33
3.585,1.33,-0.29,-0.18,1.38
3.595,1.12,-0.59,-0.25,1.29
3.605,0.82,-0.87,-0.33,1.24
3.615,0.54,-0.99,-0.35,1.18
3.625,0.37,-1.08,-0.18,1.16
3.635,0.40,-1.21,0.03,1.27
3.645,0.51,-1.14,0.07,1.25
3.655,0.45,-0.91,0.27,1.05
3.665,0.23,-0.80,0.47,0.95
3.675,-0.09,-0.56,0.71,0.91
3.686,-0.94,-0.11,1.34,1.64
3.695,-1.98,0.19,1.76,2.66
3.706,-2.50,0.48,1.87,3.16
3.716,-2.41,0.88,1.77,3.12
3.726,-1.75,1.33,1.54,2.69
3.736,-1.06,1.59,1.26,2.28
3.746,-0.68,1.63,1.08,2.07
3.756,-0.82,1.45,0.91,1.90
3.766,-1.20,1.23,0.66,1.84
3.776,-1.65,0.94,0.37,1.94
3.786,-1.96,0.58,0.04,2.05
3.796,-1.89,0.38,-0.15,1.94
3.806,-1.44,0.38,-0.28,1.52
3.816,-0.97,0.41,-0.45,1.14
3.826,-0.68,0.41,-0.61,1.00
3.836,-0.56,0.36,-0.78,1.02
3.847,-0.49,0.25,-1.00,1.14
3.857,-0.34,0.07,-1.22,1.27
3.867,-0.14,-0.08,-1.37,1.38
3.877,0.15,-0.23,-1.41,1.44
3.887,0.33,-0.40,-1.34,1.44
3.897,0.43,-0.56,-1.25,1.44
3.907,0.50,-0.67,-1.13,1.41
3.917,0.60,-0.71,-0.99,1.35
3.927,0.72,-0.65,-0.80,1.26
3.937,0.82,-0.58,-0.62,1.18
3.947,0.92,-0.44,-0.46,1.12
3.957,0.90,-0.33,-0.28,1.00
3.967,0.80,-0.29,-0.18,0.87
3.977,0.70,-0.29,-0.06,0.76
3.988,0.66,-0.31,0.05,0.73
3.997,0.61,-0.29,0.14,0.69
4.008,0.52,-0.31,0.24,0.65
4.018,0.44,-0.33,0.29,0.62
4.028,0.39,-0.32,0.33,0.60
4.038,0.36,-0.27,0.36,0.57
4.048,0.32,-0.22,0.35,0.52
4.058,0.29,-0.14,0.34,0.47
4.068,0.22,-0.06,0.29,0.37
4.078,0.13,-0.01,0.23,0.27
4.088,0.09,0.03,0.18,0.20
4.098,0.02,0.06,0.10,0.12
4.108,-0.06,0.08,0.04,0.11
4.118,-0.20,0.05,-0.04,0.21
4.128,-0.27,0.04,-0.10,0.29
4.138,-0.30,0.06,-0.15,0.35
4.149,-0.31,0.11,-0.19,0.38
4.159,-0.34,0.16,-0.21,0.43
4.169,-0.34,0.18,-0.21,0.44
4.179,-0.36,0.21,-0.21,0.47
4.189,-0.39,0.19,-0.22,0.49
4.199,-0.42,0.16,-0.25,0.52
4.209,-0.39,0.10,-0.27,0.48
4.219,-0.30,0.09,-0.27,0.41
4.229,-0.16,0.06,-0.26,0.31
4.239,-0.02,0.04,-0.26,0.26
4.249,0.05,0.00,-0.23,0.24
4.259,0.12,-0.07,-0.20,0.24
4.269,0.19,-0.10,-0.18,0.28
4.279,0.24,-0.11,-0.14,0.30
4.290,0.27,-0.14,-0.10,0.32
4.300,0.30,-0.15,-0.05,0.34
4.310,0.35,-0.12,-0.02,0.37
4.320,0.40,-0.06,0.03,0.40
4.330,0.36,-0.06,0.05,0.37
4.340,0.32,-0.06,0.07,0.33
4.350,0.25,-0.11,0.06,0.28
4.360,0.15,-0.18,0.08,0.25
4.370,0.06,-0.23,0.08,0.25
4.380,-0.01,-0.24,0.09,0.25
4.390,-0.04,-0.14,0.07,0.17
4.400,-0.02,0.02,0.02,0.04
4.410,-0.02,0.17,-0.02,0.18
4.420,-0.10,0.21,-0.03,0.23
4.430,-0.19,0.18,-0.05,0.26
4.440,-0.25,0.12,-0.08,0.29
4.451,-0.30,0.06,-0.13,0.33
4.461,-0.33,0.02,-0.17,0.37
4.471,-0.33,0.05,-0.20,0.38
4.481,-0.27,0.12,-0.22,0.37
4.491,-0.21,0.18,-0.22,0.35
4.501,-0.16,0.17,-0.20,0.31
4.511,-0.12,0.12,-0.17,0.24
4.521,-0.11,0.07,-0.15,0.20
4.531,-0.08,0.03,-0.12,0.15
4.541,-0.07,-0.01,-0.07,0.11
4.551,-0.05,-0.03,-0.06,0.08
4.561,-0.02,-0.02,-0.02,0.04
4.572,-0.01,-0.01,-0.03,0.04
4.582,-0.04,-0.02,-0.03,0.06
4.592,-0.07,-0.04,-0.02,0.08
4.602,-0.14,-0.08,-0.02,0.16
4.612,-0.15,-0.08,-0.04,0.18
4.622,-0.15,-0.03,-0.03,0.16
4.632,-0.16,0.04,-0.04,0.17
4.642,-0.20,0.12,-0.03,0.23
4.652,-0.21,0.18,-0.02,0.28
4.662,-0.18,0.25,-0.02,0.31
4.672,-0.12,0.28,-0.07,0.31
4.682,-0.08,0.19,-0.14,0.25
4.692,-0.01,0.08,-0.15,0.17
4.702,0.06,-0.01,-0.18,0.19
4.712,0.12,-0.10,-0.19,0.24
4.722,0.17,-0.19,-0.19,0.31
4.733,0.24,-0.23,-0.20,0.39
4.743,0.32,-0.27,-0.19,0.46
4.753,0.38,-0.29,-0.20,0.52
4.763,0.39,-0.28,-0.20,0.52
4.773,0.38,-0.24,-0.19,0.49
4.783,0.37,-0.22,-0.19,0.47
4.793,0.31,-0.15,-0.18,0.39
4.803,0.16,-0.12,-0.17,0.26
4.813,0.02,-0.04,-0.13,0.14
4.823,-0.04,0.06,-0.11,0.13
4.833,-0.11,0.15,-0.05,0.19
4.843,-0.15,0.19,-0.04,0.25
4.853,-0.19,0.17,-0.03,0.25
4.863,-0.22,0.05,-0.03,0.23
4.874,-0.18,-0.05,-0.04,0.19
4.884,-0.11,-0.08,-0.03,0.14
4.894,-0.06,-0.08,-0.02,0.10
4.904,0.02,-0.05,-0.03,0.06
4.914,0.07,-0.03,-0.03,0.08
4.924,0.12,-0.01,-0.06,0.14
4.934,0.14,-0.03,-0.06,0.15
4.944,0.11,-0.02,-0.06,0.13
4.954,0.08,-0.00,-0.04,0.09
4.964,0.08,0.03,-0.06,0.10
4.974,0.05,0.02,-0.05,0.07
4.984,0.05,-0.01,-0.03,0.06
4.994,0.10,-0.04,-0.02,0.11
5.004,0.14,-0.00,-0.00,0.14
5.014,0.15,0.03,-0.02,0.16
5.025,0.15,0.06,-0.07,0.18
5.035,0.04,0.05,-0.10,0.12
5.045,-0.10,0.03,-0.11,0.16
5.055,-0.20,0.01,-0.14,0.25
5.065,-0.28,0.05,-0.17,0.33
5.075,-0.28,0.07,-0.18,0.34
5.085,-0.21,0.10,-0.21,0.32
5.095,-0.12,0.13,-0.25,0.31
5.105,-0.06,0.10,-0.29,0.31
5.115,-0.04,0.03,-0.32,0.32
5.125,-0.07,-0.05,-0.31,0.32
5.135,-0.13,-0.07,-0.26,0.30
5.145,-0.16,-0.02,-0.17,0.23
5.156,-0.17,0.08,-0.09,0.21
5.166,-0.17,0.15,-0.01,0.23
5.176,-0.16,0.21,0.05,0.27
5.186,-0.15,0.22,0.10,0.29
5.196,-0.19,0.17,0.17,0.31
5.206,-0.22,0.07,0.23,0.32
5.216,-0.19,-0.06,0.29,0.35
5.226,-0.13,-0.16,0.32,0.38
5.236,-0.05,-0.19,0.33,0.38
5.246,0.06,-0.19,0.29,0.35
5.256,0.18,-0.12,0.25,0.33
5.266,0.29,-0.01,0.16,0.33
5.276,0.38,0.07,0.09,0.40
5.286,0.42,0.09,0.02,0.43
5.296,0.34,0.07,-0.03,0.34
5.306,0.19,-0.03,-0.04,0.19
5.317,0.02,-0.11,-0.03,0.11
5.327,-0.11,-0.13,-0.03,0.17
5.337,-0.17,-0.12,-0.05,0.22
5.347,-0.15,-0.07,-0.03,0.17
5.357,-0.14,0.03,-0.03,0.14
5.367,-0.10,0.10,-0.02,0.14
5.377,-0.10,0.12,-0.01,0.16
5.387,-0.12,0.10,0.01,0.16
5.397,-0.13,0.05,0.02,0.14
5.407,-0.13,0.00,0.02,0.13
5.417,-0.09,-0.05,0.04,0.11
5.427,-0.03,-0.06,0.06,0.09
5.437,0.07,-0.07,0.06,0.12
5.447,0.16,-0.02,0.07,0.17
5.458,0.20,0.06,0.05,0.21
5.468,0.16,0.12,0.07,0.21
5.478,0.10,0.11,0.09,0.18
5.488,0.04,0.09,0.10,0.14
5.498,-0.02,0.04,0.10,0.11
5.508,-0.09,0.00,0.13,0.16
5.518,-0.18,-0.03,0.15,0.24
5.528,-0.22,-0.05,0.15,0.27
5.538,-0.21,-0.01,0.14,0.26
5.548,-0.18,0.04,0.14,0.23
5.558,-0.16,0.08,0.10,0.20
5.568,-0.17,0.07,0.07,0.20
5.578,-0.16,-0.01,0.03,0.17
5.589,-0.14,-0.08,-0.00,0.16
5.599,-0.10,-0.11,-0.01,0.15
5.608,-0.04,-0.09,-0.04,0.11
5.619,0.04,-0.05,-0.07,0.09
5.629,0.10,-0.01,-0.08,0.13
5.639,0.12,0.03,-0.09,0.15
5.649,0.13,0.06,-0.10,0.18
5.659,0.10,0.08,-0.08,0.15
5.669,0.01,0.09,-0.05,0.10
5.679,-0.05,0.09,0.00,0.10
5.689,-0.07,0.07,0.04,0.11
5.699,-0.07,0.03,0.10,0.12
5.709,-0.05,0.00,0.13,0.14
5.719,-0.01,-0.02,0.12,0.12
5.729,0.02,-0.01,0.12,0.13
5.739,0.02,0.00,0.11,0.11
5.749,-0.03,0.02,0.09,0.09
5.760,-0.06,0.05,0.05,0.10
5.770,-0.08,0.06,0.02,0.11
5.780,-0.12,0.02,-0.02,0.12
5.790,-0.12,-0.03,-0.03,0.12
5.800,-0.09,-0.08,-0.07,0.14
5.810,-0.03,-0.11,-0.11,0.16
5.820,0.03,-0.10,-0.12,0.16
5.830,0.09,-0.07,-0.14,0.18
5.840,0.12,-0.04,-0.14,0.19
5.850,0.09,-0.01,-0.15,0.18
5.860,0.07,0.01,-0.11,0.13
5.870,0.04,0.02,-0.09,0.10
5.881,-0.03,0.02,-0.07,0.08
5.891,-0.07,-0.02,-0.04,0.08
5.901,-0.08,-0.01,-0.00,0.08
5.911,-0.09,-0.00,0.02,0.09
5.921,-0.07,0.04,0.04,0.09
5.931,-0.04,0.07,0.04,0.09
5.941,-0.04,0.09,0.06,0.11
5.951,-0.04,0.06,0.06,0.10
5.961,-0.07,0.03,0.07,0.10
5.971,-0.09,-0.01,0.07,0.11
5.981,-0.10,-0.06,0.07,0.14
5.991,-0.09,-0.07,0.04,0.12
6.001,-0.07,-0.08,0.04,0.11
6.011,-0.00,-0.07,0.02,0.07
6.021,0.05,-0.01,-0.02,0.05
6.031,0.05,0.02,-0.04,0.07
6.042,0.04,0.04,-0.06,0.08
6.052,0.02,0.05,-0.07,0.08
6.062,-0.01,0.04,-0.06,0.07
6.072,-0.03,0.02,-0.06,0.07
6.082,-0.07,-0.03,-0.03,0.08
6.092,-0.09,-0.07,-0.03,0.12
6.102,-0.07,-0.09,-0.02,0.12
6.112,-0.08,-0.07,-0.01,0.11
6.122,-0.06,-0.03,0.00,0.07
6.132,-0.05,0.03,0.01,0.06
6.142,-0.05,0.10,0.03,0.12
6.152,-0.06,0.11,0.04,0.13
6.162,-0.09,0.07,0.07,0.13
6.172,-0.13,0.01,0.10,0.16
6.183,-0.17,-0.02,0.12,0.21
6.193,-0.16,-0.02,0.15,0.22
6.203,-0.16,0.03,0.16,0.23
6.213,-0.13,0.08,0.18,0.23
6.223,-0.11,0.09,0.21,0.25
6.233,-0.10,0.08,0.21,0.25
6.243,-0.12,0.07,0.21,0.25
6.253,-0.12,0.07,0.22,0.26
6.263,-0.16,0.07,0.23,0.29
6.273,-0.17,0.07,0.24,0.30
6.283,-0.14,0.07,0.24,0.28
6.293,-0.07,0.07,0.24,0.26
6.303,-0.05,0.08,0.21,0.23
6.313,-0.02,0.07,0.19,0.21
6.324,-0.02,0.05,0.17,0.18
6.333,-0.03,0.02,0.13,0.14
6.344,-0.04,-0.02,0.13,0.14
6.354,-0.04,-0.04,0.11,0.13
6.364,-0.04,-0.06,0.08,0.11
6.374,-0.04,-0.04,0.08,0.09
6.384,-0.03,-0.05,0.04,0.07
6.394,-0.02,-0.04,0.02,0.05
6.404,0.01,-0.03,-0.04,0.05
6.414,-0.01,-0.01,-0.09,0.09
6.424,-0.01,0.02,-0.12,0.12
6.434,-0.05,0.03,-0.14,0.15
6.444,-0.09,0.03,-0.15,0.18
6.454,-0.10,0.02,-0.13,0.17
6.465,-0.10,0.03,-0.12,0.16
6.474,-0.12,0.02,-0.11,0.16
6.485,-0.12,0.02,-0.11,0.17
6.495,-0.09,0.02,-0.11,0.14
6.505,-0.04,0.04,-0.07,0.09
6.515,-0.00,0.07,-0.04,0.08
6.525,0.01,0.06,-0.01,0.06
6.535,0.00,0.08,0.04,0.09
6.545,0.01,0.05,0.06,0.08
6.555,0.00,0.05,0.07,0.09
6.565,0.03,0.04,0.07,0.09
6.575,0.04,0.01,0.08,0.09
6.585,0.08,0.02,0.10,0.13
6.595,0.14,0.04,0.10,0.18
6.605,0.19,0.03,0.09,0.21
6.615,0.20,0.02,0.07,0.21
6.626,0.21,-0.00,0.07,0.22
6.636,0.20,-0.02,0.04,0.20
6.646,0.19,-0.04,0.04,0.19
6.656,0.17,-0.03,0.02,0.17
6.666,0.16,-0.04,0.00,0.16
6.676,0.14,-0.06,-0.02,0.15
6.686,0.11,-0.11,-0.04,0.16
6.696,0.07,-0.15,-0.09,0.19
6.706,0.08,-0.18,-0.14,0.25
6.716,0.13,-0.17,-0.22,0.31
6.726,0.17,-0.13,-0.28,0.35
6.736,0.20,-0.13,-0.33,0.41
6.746,0.18,-0.11,-0.38,0.43
6.756,0.12,-0.11,-0.42,0.45
6.767,0.08,-0.09,-0.45,0.47
6.777,0.02,-0.07,-0.48,0.49
6.787,-0.02,-0.03,-0.46,0.46
6.797,-0.03,0.02,-0.44,0.45
6.807,-0.03,0.04,-0.42,0.42
6.817,-0.01,0.05,-0.37,0.37
6.827,0.02,0.04,-0.30,0.30
6.837,0.07,0.01,-0.20,0.21
6.847,0.10,-0.04,-0.11,0.15
6.857,0.13,-0.07,-0.02,0.15
6.867,0.17,-0.09,0.05,0.19
6.877,0.21,-0.10,0.07,0.24
6.887,0.22,-0.11,0.07,0.26
6.897,0.21,-0.13,0.08,0.26
6.908,0.16,-0.12,0.10,0.22
6.918,0.09,-0.11,0.10,0.17
6.928,0.05,-0.07,0.06,0.11
6.938,-0.01,-0.01,0.06,0.06
6.948,-0.06,0.02,0.04,0.07
6.958,-0.10,0.01,-0.02,0.11
6.968,-0.12,0.00,-0.05,0.13
6.978,-0.10,0.00,-0.11,0.15
6.988,-0.05,-0.01,-0.14,0.15
6.998,0.01,-0.02,-0.17,0.17
7.008,0.08,-0.07,-0.19,0.22
7.018,0.11,-0.06,-0.20,0.24
7.028,0.14,-0.07,-0.23,0.28
7.039,0.11,-0.06,-0.21,0.25
7.049,0.07,-0.05,-0.17,0.19
7.059,0.01,-0.01,-0.13,0.14
7.069,-0.01,0.03,-0.09,0.10
7.079,-0.04,0.05,-0.03,0.07
7.089,-0.04,0.05,0.02,0.07
7.099,-0.07,0.04,0.06,0.10
7.109,-0.08,0.02,0.09,0.12
7.119,-0.06,0.02,0.14,0.16
7.129,-0.01,0.00,0.12,0.12
7.139,0.01,-0.00,0.11,0.11
7.149,0.02,0.01,0.09,0.09
7.159,0.06,0.04,0.04,0.08
7.169,0.03,0.05,0.01,0.06
7.179,0.00,0.02,-0.01,0.03
7.190,-0.04,0.01,-0.06,0.07
7.199,-0.05,0.01,-0.08,0.10
7.210,-0.05,0.02,-0.11,0.12
7.220,-0.06,0.04,-0.11,0.13
7.230,-0.06,0.05,-0.11,0.13
7.240,-0.04,0.06,-0.09,0.12
7.250,-0.05,0.02,-0.06,0.08
7.260,-0.04,-0.01,-0.01,0.04
7.270,-0.04,-0.05,0.00,0.07
7.280,-0.00,-0.06,0.03,0.06
7.290,0.05,-0.03,0.04,0.07
7.300,0.05,-0.00,0.05,0.07
7.310,0.04,-0.01,0.03,0.05
7.320,0.02,-0.03,0.02,0.03
7.330,0.00,-0.05,0.01,0.05
7.340,-0.00,-0.07,-0.02,0.08
7.350,-0.02,-0.08,-0.05,0.10
7.361,-0.02,-0.05,-0.07,0.09
7.371,0.02,-0.01,-0.08,0.08
7.381,0.01,0.03,-0.10,0.10
7.391,-0.00,0.05,-0.09,0.10
7.401,0.00,0.07,-0.09,0.11
7.411,0.00,0.06,-0.08,0.10
7.421,-0.03,0.02,-0.08,0.09
7.431,-0.01,0.01,-0.04,0.04
7.441,0.01,-0.00,-0.03,0.03
7.451,0.03,-0.05,-0.04,0.07
7.461,0.03,-0.06,-0.04,0.08
7.471,0.03,-0.08,-0.05,0.10
7.482,0.01,-0.08,-0.03,0.09
7.492,-0.01,-0.07,-0.04,0.08
7.502,0.00,-0.03,-0.07,0.08
7.511,0.02,0.02,-0.07,0.08
7.522,0.00,0.08,-0.06,0.09
7.532,-0.06,0.09,-0.05,0.12
7.542,-0.10,0.05,-0.04,0.12
7.552,-0.07,0.01,-0.02,0.07
7.562,-0.09,0.01,-0.01,0.10
7.572,-0.10,-0.00,-0.01,0.10
7.582,-0.05,-0.03,0.02,0.06
7.592,0.01,-0.04,0.03,0.05
7.602,0.05,-0.03,0.02,0.06
7.612,0.07,0.01,0.04,0.09
7.622,0.06,0.06,0.03,0.09
7.633,0.03,0.08,0.03,0.09
7.642,-0.04,0.08,0.04,0.10
7.653,-0.11,0.07,0.05,0.14
7.663,-0.15,0.01,0.04,0.16
7.673,-0.16,-0.02,0.03,0.16
7.683,-0.11,-0.06,0.01,0.12
7.693,-0.01,-0.09,0.01,0.09
7.703,0.11,-0.10,0.00,0.14
7.713,0.14,-0.09,-0.00,0.17
7.723,0.13,-0.06,0.01,0.14
7.733,0.10,-0.03,-0.01,0.10
7.743,0.06,0.04,0.00,0.07
7.753,-0.03,0.04,0.03,0.06
7.763,-0.09,0.02,0.04,0.10
7.773,-0.11,-0.06,0.08,0.15
7.783,-0.08,-0.08,0.08,0.14
7.794,-0.01,-0.06,0.09,0.11
7.804,0.06,-0.02,0.07,0.09
7.814,0.10,0.03,0.07,0.12
7.824,0.12,0.04,0.08,0.15
7.834,0.07,0.06,0.08,0.12
7.844,0.00,0.04,0.06,0.07
7.854,-0.07,0.02,0.06,0.09
7.864,-0.09,-0.00,0.07,0.11
7.874,-0.05,0.01,0.06,0.08
7.884,0.00,-0.01,0.05,0.05
7.894,0.02,-0.01,0.05,0.05
7.904,0.05,-0.01,0.02,0.05
7.914,0.05,-0.02,0.01,0.05
7.924,-0.02,0.00,0.01,0.02
7.935,-0.06,0.04,0.01,0.07
7.944,-0.10,0.06,0.01,0.12
7.955,-0.12,0.06,0.01,0.13
7.965,-0.12,0.04,0.01,0.12
7.975,-0.08,0.04,-0.02,0.10
7.985,-0.05,0.00,-0.01,0.05
7.995,0.02,-0.03,-0.02,0.04
8.005,0.09,-0.04,-0.03,0.10
8.015,0.12,-0.06,-0.03,0.14
8.025,0.14,-0.06,-0.02,0.15
8.035,0.12,-0.04,-0.04,0.13
8.045,0.09,-0.06,-0.02,0.11
8.055,0.04,-0.08,0.00,0.09
8.065,0.02,-0.12,0.01,0.13
8.076,0.02,-0.10,0.02,0.10
8.086,-0.02,-0.06,0.01,0.07
8.096,-0.02,-0.04,0.01,0.05
8.106,-0.02,-0.02,0.00,0.03
8.116,-0.01,-0.02,0.01,0.02
8.126,-0.01,-0.00,0.04,0.04
8.136,0.00,0.02,0.04,0.05
8.146,-0.01,0.02,0.04,0.04
8.156,-0.00,0.05,0.06,0.08
8.166,0.00,0.05,0.07,0.09
8.176,-0.01,0.05,0.11,0.12
8.186,-0.04,0.06,0.11,0.13
8.196,-0.07,0.04,0.10,0.13
8.206,-0.08,0.03,0.10,0.13
8.216,-0.09,0.03,0.11,0.14
8.226,-0.07,0.03,0.11,0.14
8.237,-0.06,0.03,0.09,0.12
8.247,-0.04,0.04,0.10,0.12
8.257,-0.01,0.03,0.11,0.11
8.267,-0.02,0.01,0.09,0.09
8.277,-0.01,-0.01,0.07,0.07
8.287,-0.02,-0.02,0.05,0.06
8.297,-0.04,-0.01,0.03,0.05
8.307,-0.04,-0.03,0.02,0.05
8.317,-0.03,-0.03,0.03,0.05
8.327,-0.02,-0.04,-0.01,0.04
8.337,-0.00,-0.02,-0.02,0.03
8.347,0.02,-0.02,-0.02,0.03
8.358,0.05,0.01,-0.05,0.07
8.367,0.04,0.03,-0.02,0.05
8.378,0.03,0.03,-0.03,0.05
8.387,0.00,0.03,-0.01,0.04
8.398,-0.02,0.01,-0.00,0.02
8.408,-0.01,-0.04,0.00,0.04
8.418,-0.04,-0.05,0.00,0.06
8.428,-0.03,-0.05,-0.01,0.06
8.438,-0.01,-0.04,-0.01,0.04
8.448,0.02,-0.01,-0.01,0.02
8.458,0.01,-0.02,-0.02,0.03
8.468,0.02,-0.00,-0.04,0.04
8.478,-0.01,-0.01,-0.04,0.04
8.488,-0.04,-0.01,-0.03,0.05
8.498,-0.02,-0.03,-0.04,0.05
8.508,-0.01,-0.01,-0.04,0.04
8.519,-0.03,0.00,-0.02,0.04
8.528,-0.05,-0.02,-0.01,0.05
8.539,-0.05,-0.01,0.01,0.05
8.549,-0.04,0.01,0.03,0.05
8.559,-0.01,0.06,0.02,0.07
8.569,0.01,0.09,0.03,0.09
8.579,0.01,0.10,0.03,0.10
8.589,-0.00,0.09,0.03,0.10
8.599,-0.03,0.06,0.03,0.07
8.609,-0.06,-0.01,0.03,0.07
8.619,-0.06,-0.05,0.03,0.09
8.629,-0.04,-0.11,0.01,0.12
8.639,0.00,-0.09,0.01,0.09
8.649,0.02,-0.05,-0.01,0.05
8.660,0.05,0.01,-0.01,0.05
8.670,0.04,0.06,-0.04,0.08
8.680,0.00,0.07,-0.04,0.08
8.690,-0.05,0.06,-0.04,0.08
8.700,-0.09,0.00,-0.04,0.10
8.710,-0.10,-0.01,-0.02,0.10
8.720,-0.08,-0.02,-0.01,0.09
8.730,-0.06,-0.02,-0.01,0.06
8.740,-0.02,-0.01,-0.02,0.03
8.750,-0.00,-0.01,0.00,0.01
8.760,0.00,-0.00,-0.01,0.01
8.770,0.01,0.02,0.02,0.03
8.780,0.03,0.01,-0.00,0.03
8.790,-0.00,0.02,0.02,0.03
8.800,0.00,0.02,0.01,0.02
8.811,0.01,0.00,0.03,0.03
8.821,-0.01,-0.01,0.05,0.05
8.831,-0.01,-0.01,0.06,0.06
8.841,-0.01,-0.01,0.08,0.08
8.851,0.00,0.00,0.06,0.06
8.861,0.00,0.02,0.04,0.05
8.871,-0.01,0.04,0.03,0.05
8.881,-0.03,0.02,0.02,0.04
8.891,-0.05,0.01,0.01,0.05
8.901,-0.04,0.00,-0.02,0.04
8.911,-0.04,-0.01,-0.01,0.05
8.921,-0.03,-0.01,-0.03,0.04
8.931,-0.00,-0.02,-0.06,0.07
8.941,0.05,-0.03,-0.07,0.09
8.951,0.08,-0.04,-0.06,0.11
8.961,0.09,-0.05,-0.06,0.12
8.972,0.08,-0.05,-0.06,0.11
8.982,0.07,-0.02,-0.06,0.09
8.992,0.04,-0.00,-0.03,0.05
9.002,0.02,0.03,-0.05,0.06
9.012,-0.00,0.04,-0.04,0.06
9.022,-0.05,0.01,-0.01,0.05
9.032,-0.08,-0.03,-0.02,0.09
9.042,-0.09,-0.07,-0.03,0.11
9.052,-0.08,-0.06,-0.04,0.11
9.062,-0.00,-0.01,-0.05,0.05
9.072,0.03,0.04,-0.05,0.07
9.082,0.05,0.03,-0.07,0.09
9.092,0.03,-0.00,-0.08,0.08
9.103,0.03,-0.02,-0.06,0.07
9.113,0.03,-0.03,-0.07,0.08
9.123,0.04,-0.02,-0.06,0.08
9.133,0.06,-0.00,-0.04,0.07
9.143,0.07,-0.01,-0.03,0.08
9.153,0.06,-0.03,-0.04,0.08
9.163,0.07,-0.06,-0.04,0.10
9.173,0.08,-0.07,-0.01,0.11
9.183,0.06,-0.05,-0.01,0.08
9.193,0.02,-0.04,-0.00,0.05
9.203,-0.01,-0.03,-0.01,0.04
9.213,-0.03,-0.00,-0.01,0.03
9.223,-0.03,0.02,-0.02,0.04
9.233,-0.04,0.03,-0.03,0.06
9.244,-0.03,0.00,-0.03,0.04
9.254,-0.03,-0.02,-0.04,0.05
9.264,0.01,-0.04,-0.03,0.05
9.274,0.03,-0.03,-0.04,0.06
9.284,0.04,-0.03,-0.04,0.06
9.294,0.04,-0.01,-0.03,0.05
9.304,0.03,-0.02,-0.02,0.05
9.314,-0.01,-0.02,-0.01,0.02
9.324,-0.01,-0.00,0.01,0.01
9.334,0.03,0.00,0.02,0.03
9.344,0.06,0.01,0.01,0.06
9.354,0.03,0.00,0.02,0.03
9.364,-0.00,0.02,0.05,0.05
9.374,0.02,0.01,0.04,0.05
9.385,0.01,-0.00,0.06,0.06
9.395,0.00,-0.03,0.08,0.09
9.405,0.01,-0.04,0.07,0.08
9.415,0.01,-0.03,0.05,0.06
9.425,0.00,-0.02,0.05,0.06
9.435,0.03,-0.01,0.03,0.04
9.445,0.03,-0.00,0.02,0.03
9.455,0.01,-0.02,0.01,0.03
9.465,-0.02,-0.05,0.02,0.05
9.475,-0.03,-0.02,0.03,0.05
9.485,-0.01,-0.01,0.02,0.02
9.495,-0.01,0.01,0.01,0.02
9.505,-0.01,0.04,0.01,0.04
9.515,0.01,0.07,0.02,0.07
9.525,0.01,0.06,0.02,0.06
9.535,-0.02,0.03,0.04,0.05
9.545,-0.01,-0.02,0.03,0.04
9.555,-0.00,-0.04,0.05,0.06
9.566,0.01,-0.01,0.04,0.04
9.576,0.02,0.00,0.05,0.06
9.586,0.00,0.01,0.07,0.07
9.596,0.01,-0.03,0.06,0.06
9.606,0.02,-0.04,0.05,0.07
9.616,0.01,-0.05,0.04,0.07
9.626,0.03,-0.04,0.03,0.06
9.636,0.05,-0.00,0.03,0.06
9.646,0.05,0.01,0.03,0.06
9.656,0.05,0.01,0.05,0.07
9.666,0.04,0.02,0.05,0.06
9.676,-0.02,0.02,0.03,0.04
9.687,-0.05,-0.00,0.02,0.05
9.697,-0.07,-0.03,0.02,0.08
9.707,-0.04,-0.03,0.00,0.06
9.717,-0.02,-0.00,0.00,0.02
9.727,0.02,0.01,-0.02,0.03
9.737,0.03,-0.01,-0.06,0.07
9.747,0.04,-0.04,-0.07,0.09
9.757,0.06,-0.07,-0.07,0.12
9.767,0.07,-0.06,-0.08,0.12
9.777,0.03,-0.06,-0.08,0.10
9.787,-0.01,-0.04,-0.07,0.09
9.797,-0.04,-0.03,-0.08,0.09
9.807,-0.02,-0.03,-0.07,0.08
9.817,0.00,-0.02,-0.09,0.09
9.828,0.03,0.01,-0.08,0.09
9.838,0.05,0.02,-0.06,0.08
9.848,0.06,0.01,-0.07,0.10
9.858,0.07,0.00,-0.04,0.08
9.868,0.06,-0.03,-0.01,0.07
9.878,0.05,-0.07,-0.01,0.08
9.888,0.04,-0.08,0.02,0.09
9.898,0.04,-0.06,0.01,0.07
9.908,0.02,-0.04,0.03,0.06
9.918,0.00,-0.01,0.04,0.04
9.928,-0.01,0.05,0.06,0.07
9.938,-0.01,0.06,0.08,0.10
9.948,-0.06,0.07,0.11,0.15
9.958,-0.12,0.10,0.12,0.20
9.969,-0.19,0.09,0.14,0.25
9.979,-0.23,0.11,0.14,0.29
9.989,-0.27,0.12,0.14,0.33
9.999,-0.28,0.13,0.15,0.34
10.009,-0.31,0.15,0.15,0.38
10.019,-0.27,0.18,0.15,0.36
10.029,-0.26,0.16,0.14,0.33
10.039,-0.20,0.14,0.12,0.27
10.049,-0.12,0.13,0.09,0.20
10.059,-0.04,0.10,0.06,0.13
10.069,0.02,0.08,0.06,0.10
10.079,0.05,0.06,0.03,0.08
10.089,0.08,0.02,0.01,0.09
10.099,0.09,-0.04,0.00,0.09
10.109,0.09,-0.09,-0.02,0.13
10.119,0.07,-0.12,-0.04,0.15
10.130,0.08,-0.15,-0.04,0.17
10.140,0.09,-0.13,-0.07,0.17
10.150,0.12,-0.08,-0.09,0.17
10.160,0.12,-0.06,-0.11,0.17
10.170,0.11,-0.05,-0.10,0.16
10.180,0.07,-0.06,-0.10,0.13
10.190,0.02,-0.06,-0.11,0.13
10.200,-0.00,-0.05,-0.12,0.13
10.210,-0.01,-0.04,-0.12,0.13
10.220,-0.02,-0.00,-0.12,0.12
10.230,-0.03,0.01,-0.11,0.11
10.240,-0.06,0.03,-0.13,0.14
10.251,-0.09,0.02,-0.10,0.14
10.260,-0.14,0.03,-0.08,0.16
10.271,-0.13,0.04,-0.08,0.16
10.280,-0.09,0.04,-0.05,0.11
10.291,-0.03,0.05,-0.02,0.06
10.301,0.02,0.05,0.01,0.06
10.311,0.05,0.05,0.02,0.07
10.321,0.09,0.00,0.03,0.09
10.331,0.09,-0.00,0.03,0.10
10.341,0.09,-0.02,0.02,0.09
10.351,0.05,-0.09,0.03,0.10
10.361,0.02,-0.12,0.03,0.12
10.371,0.01,-0.11,-0.00,0.11
10.381,-0.01,-0.11,-0.02,0.11
10.391,-0.02,-0.09,-0.03,0.10
10.401,0.01,-0.04,-0.05,0.06
10.412,0.03,-0.01,-0.05,0.06
10.421,0.05,0.02,-0.04,0.06
10.432,0.05,0.03,-0.02,0.06
10.442,0.05,0.02,-0.02,0.06
10.452,-0.00,0.00,-0.01,0.02
10.462,-0.03,-0.03,-0.03,0.05
10.472,-0.08,-0.01,-0.02,0.08
10.482,-0.08,-0.00,-0.03,0.09
10.492,-0.08,0.03,-0.03,0.09
10.502,-0.05,0.04,-0.03,0.08
10.512,-0.01,0.05,-0.02,0.05
10.522,0.02,0.03,-0.05,0.06
10.533,0.06,-0.00,-0.03,0.06
10.542,0.10,-0.03,-0.05,0.12
10.552,0.12,-0.04,-0.05,0.14
10.562,0.11,-0.08,-0.03,0.14
10.573,0.11,-0.11,-0.01,0.15
10.583,0.08,-0.13,-0.01,0.15
10.593,0.07,-0.13,0.00,0.15
10.603,0.05,-0.08,0.01,0.10
10.613,0.02,-0.04,-0.00,0.05
10.623,0.01,-0.01,-0.01,0.02
10.633,0.04,0.01,-0.00,0.04
10.643,0.04,0.03,0.01,0.05
10.653,0.03,0.04,0.02,0.06
10.663,-0.00,0.04,0.02,0.04
10.673,-0.04,0.05,0.02,0.07
10.683,-0.06,0.06,0.04,0.09
10.693,-0.08,0.06,0.04,0.11
10.703,-0.08,0.05,0.04,0.11
10.714,-0.09,0.02,0.04,0.11
10.724,-0.07,0.02,0.03,0.08
10.734,-0.01,0.01,0.03,0.03
10.744,0.02,0.02,0.03,0.04
10.754,0.05,0.01,0.04,0.06
10.764,0.07,-0.02,0.04,0.08
10.774,0.05,-0.04,0.04,0.08
10.784,0.05,-0.07,0.04,0.09
10.794,0.03,-0.07,0.05,0.09
10.804,0.01,-0.04,0.06,0.07
10.814,-0.02,0.01,0.05,0.05
10.824,-0.04,0.03,0.04,0.07
10.834,-0.08,0.04,0.04,0.10
10.844,-0.13,0.03,0.03,0.13
10.855,-0.13,0.03,0.01,0.14
10.865,-0.13,0.04,-0.01,0.14
10.875,-0.10,0.03,-0.01,0.10
10.885,-0.05,0.03,-0.01,0.06
10.895,0.01,0.03,-0.03,0.04
10.905,0.05,0.01,-0.04,0.06
10.915,0.05,-0.01,-0.04,0.07
10.925,0.01,-0.02,-0.03,0.04
10.935,-0.01,-0.04,-0.00,0.04
10.945,-0.04,-0.03,0.01,0.05
10.955,-0.04,-0.02,0.02,0.05
10.965,-0.04,0.00,0.01,0.04
10.975,-0.06,0.03,0.02,0.07
10.985,-0.04,0.03,0.03,0.06
10.996,-0.03,0.03,0.02,0.05
11.006,-0.02,0.02,0.03,0.04
11.016,0.01,0.01,0.05,0.05
11.026,0.01,-0.02,0.05,0.05
11.036,0.02,-0.04,0.06,0.07
11.046,0.03,-0.05,0.05,0.08
11.056,0.02,-0.07,0.05,0.08
11.066,0.05,-0.06,0.02,0.08
11.076,0.07,-0.05,0.01,0.09
11.086,0.06,-0.04,0.00,0.07
11.096,0.07,-0.02,-0.01,0.07
11.106,0.04,0.01,-0.04,0.06
11.116,0.05,-0.02,-0.03,0.06
11.126,0.03,-0.05,-0.02,0.06
11.136,0.04,-0.05,-0.02,0.06
11.146,0.05,-0.05,0.02,0.07
11.157,0.05,-0.04,0.03,0.08
11.167,0.06,-0.03,0.04,0.08
11.177,0.06,0.01,0.06,0.08
11.187,0.01,0.01,0.08,0.08
11.197,-0.00,0.02,0.07,0.07
11.207,-0.03,0.03,0.08,0.09
11.217,-0.05,0.03,0.05,0.08
11.227,-0.04,0.02,0.04,0.06
11.237,-0.05,0.02,0.03,0.06
11.247,-0.06,0.00,0.03,0.07
11.257,-0.06,0.01,0.03,0.07
11.267,-0.05,0.01,0.03,0.06
11.277,-0.03,0.01,0.03,0.05
11.287,-0.03,0.04,0.04,0.06
11.298,-0.04,0.04,0.05,0.08
11.308,-0.03,0.05,0.06,0.08
11.318,-0.02,0.06,0.03,0.07
11.328,-0.03,0.04,0.02,0.05
11.338,-0.03,-0.00,0.01,0.03
11.348,-0.04,-0.02,0.02,0.05
11.358,-0.03,-0.04,0.00,0.06
11.368,-0.02,-0.02,-0.01,0.03
11.378,-0.02,0.00,-0.04,0.04
11.388,0.00,-0.01,-0.05,0.05
11.398,0.00,-0.04,-0.06,0.08
11.408,0.00,-0.06,-0.07,0.09
11.418,0.00,-0.06,-0.06,0.09
11.428,0.01,-0.01,-0.05,0.05
11.439,0.01,-0.01,-0.06,0.07
11.449,-0.01,0.01,-0.06,0.07
11.459,-0.01,0.02,-0.04,0.05
11.469,-0.04,0.02,-0.02,0.05
11.479,-0.02,0.01,-0.00,0.02
11.489,-0.03,-0.01,0.01,0.03
11.499,-0.00,-0.02,0.02,0.03
11.509,0.01,-0.03,0.03,0.04
11.519,0.05,-0.01,0.03,0.06
11.529,0.06,0.01,0.02,0.07
11.539,0.06,0.01,0.04,0.08
11.549,0.02,-0.00,0.05,0.06
11.559,-0.02,0.00,0.07,0.07
11.569,-0.04,-0.01,0.06,0.08
11.579,-0.07,-0.01,0.03,0.08
11.590,-0.06,-0.01,0.03,0.07
11.600,-0.03,0.01,0.00,0.03
11.610,-0.01,0.00,-0.01,0.02
11.620,-0.02,-0.02,-0.03,0.04
11.630,0.02,-0.02,-0.05,0.06
11.640,0.02,-0.04,-0.04,0.06
11.650,0.01,-0.05,-0.05,0.07
11.660,0.01,-0.07,-0.05,0.08
11.670,0.01,-0.04,-0.04,0.06
11.680,0.02,-0.01,-0.04,0.05
11.690,0.01,-0.01,-0.02,0.03
11.700,0.02,0.00,-0.01,0.02
11.710,0.03,-0.01,0.00,0.03
11.720,0.03,0.00,0.01,0.03
11.730,0.05,-0.01,0.01,0.05
11.741,0.06,-0.00,0.04,0.07
11.751,0.07,0.00,0.03,0.08
11.761,0.06,-0.02,0.03,0.07
11.771,0.05,-0.01,0.06,0.08
11.781,0.02,-0.01,0.08,0.08
11.791,-0.01,-0.01,0.08,0.08
11.801,-0.05,0.04,0.07,0.09
11.811,-0.08,0.05,0.07,0.11
11.821,-0.11,0.05,0.07,0.13
11.831,-0.12,0.03,0.05,0.13
11.841,-0.14,0.03,0.06,0.16
11.851,-0.12,0.03,0.05,0.14
11.861,-0.09,0.04,0.02,0.10
11.871,-0.03,0.03,-0.01,0.04
11.882,0.01,0.00,-0.04,0.04
11.892,0.06,-0.05,-0.07,0.11
11.902,0.09,-0.07,-0.07,0.14
11.912,0.12,-0.09,-0.09,0.18
11.922,0.12,-0.10,-0.08,0.18
11.932,0.12,-0.08,-0.08,0.17
11.942,0.09,-0.07,-0.08,0.14
11.952,0.05,-0.01,-0.04,0.06
11.962,0.02,0.01,-0.02,0.03
11.972,-0.00,0.04,-0.01,0.04
11.982,-0.03,0.04,0.02,0.05
11.992,-0.02,0.03,0.05,0.06
12.002,-0.01,0.02,0.04,0.05
12.012,-0.01,-0.01,0.05,0.05
12.022,-0.01,-0.01,0.05,0.05
12.033,-0.03,0.01,0.03,0.05
12.043,-0.04,0.02,0.04,0.06
12.053,-0.04,0.05,0.04,0.08
12.063,-0.05,0.04,0.01,0.07
12.073,-0.06,0.01,0.04,0.07
12.083,-0.07,-0.01,0.03,0.08
12.093,-0.05,-0.01,0.03,0.06
12.103,-0.03,-0.03,0.02,0.05
12.113,-0.02,-0.04,0.01,0.05
12.123,-0.02,-0.03,0.00,0.03
12.133,-0.01,-0.02,-0.02,0.03
12.143,-0.02,0.03,0.00,0.04
12.153,-0.01,0.06,0.01,0.06
12.163,0.01,0.04,0.00,0.04
12.174,0.04,-0.01,0.02,0.04
12.184,0.06,-0.02,0.02,0.07
12.194,0.11,-0.05,0.02,0.12
12.204,0.09,-0.07,0.01,0.11
12.214,0.08,-0.07,0.01,0.11
12.224,0.05,-0.08,-0.00,0.09
12.234,-0.01,-0.05,-0.00,0.05
12.244,-0.07,-0.01,0.00,0.07
12.254,-0.11,0.02,-0.00,0.11
12.264,-0.12,0.05,-0.03,0.14
12.274,-0.12,0.08,-0.03,0.15
12.284,-0.10,0.07,-0.04,0.13
12.294,-0.07,0.05,-0.03,0.09
12.305,-0.02,0.02,-0.04,0.05
12.315,0.01,-0.02,-0.03,0.04
12.325,0.04,-0.04,-0.04,0.06
12.335,0.05,-0.05,-0.01,0.07
12.345,0.05,-0.02,-0.01,0.06
12.355,0.07,0.00,0.01,0.07
12.365,0.07,0.02,0.01,0.07
12.375,0.03,0.01,-0.00,0.03
12.385,0.02,-0.01,0.00,0.02
12.395,0.01,-0.03,0.01,0.04
12.405,-0.01,-0.03,0.03,0.04
12.415,-0.02,-0.02,0.03,0.05
12.425,-0.00,-0.00,0.05,0.05
12.435,-0.01,0.03,0.04,0.06
12.445,-0.02,0.03,0.04,0.05
12.455,-0.05,0.03,0.04,0.07
12.466,-0.06,0.03,0.03,0.07
12.476,-0.07,0.05,0.02,0.09
12.486,-0.07,0.05,0.01,0.09
12.496,-0.08,0.04,-0.00,0.09
12.506,-0.05,0.00,-0.02,0.05
12.516,-0.02,-0.01,-0.03,0.03
12.526,0.03,-0.03,-0.03,0.05
12.536,0.06,-0.04,-0.03,0.08
12.546,0.07,-0.06,-0.04,0.09
12.556,0.09,-0.06,-0.05,0.12
12.566,0.10,-0.05,-0.03,0.11
12.576,0.11,-0.05,-0.03,0.13
12.586,0.12,-0.03,-0.03,0.13
12.596,0.12,-0.03,0.00,0.12
12.607,0.10,-0.03,-0.00,0.11
12.617,0.06,-0.03,0.03,0.08
12.627,0.03,-0.04,0.02,0.06
12.637,0.01,-0.07,0.03,0.07
12.647,-0.01,-0.05,0.02,0.06
12.657,0.00,-0.05,0.02,0.06
12.667,0.01,-0.03,0.01,0.03
12.677,0.01,-0.01,-0.02,0.03
12.687,0.02,-0.00,-0.04,0.05
12.697,-0.01,-0.00,-0.07,0.07
12.707,-0.02,0.02,-0.06,0.07
12.717,-0.01,0.02,-0.06,0.07
12.727,0.01,0.03,-0.07,0.08
12.737,0.02,0.02,-0.08,0.08
12.747,-0.02,-0.06,-0.04,0.07
12.758,0.01,-0.13,-0.03,0.13
12.768,0.03,-0.13,-0.04,0.14
12.778,0.05,-0.08,-0.08,0.12
12.788,0.06,-0.02,-0.07,0.10
12.798,0.06,0.02,-0.06,0.09
12.808,0.03,0.04,-0.07,0.08
12.818,-0.03,0.04,-0.07,0.08
12.828,-0.09,0.06,-0.08,0.13
12.838,-0.12,0.02,-0.07,0.14
12.848,-0.11,0.02,-0.07,0.13
12.858,-0.06,0.02,-0.06,0.08
12.868,0.00,0.01,-0.04,0.04
12.878,0.06,-0.00,-0.04,0.07
12.889,0.09,-0.00,-0.03,0.10
12.898,0.10,-0.02,-0.03,0.11
12.909,0.07,-0.04,0.00,0.08
12.919,0.01,-0.05,0.00,0.05
12.929,-0.02,-0.06,0.02,0.06
12.939,-0.07,-0.06,0.02,0.09
12.949,-0.07,-0.02,0.02,0.08
12.959,-0.05,-0.01,0.04,0.06
12.969,-0.04,0.01,0.03,0.05
12.979,-0.01,0.02,0.01,0.03
12.989,0.01,0.02,0.02,0.03
12.999,0.02,0.02,0.03,0.04
13.009,0.02,0.01,0.04,0.04
13.019,0.04,0.00,0.04,0.05
13.030,0.01,0.01,0.01,0.01
13.039,-0.01,-0.00,0.04,0.04
13.050,0.01,0.01,0.05,0.05
13.060,0.00,0.00,0.02,0.02
13.070,0.01,-0.03,0.03,0.04
13.080,0.03,-0.03,0.03,0.05
13.090,0.06,-0.08,0.05,0.11
13.100,0.05,-0.07,0.04,0.09
13.110,0.04,-0.06,0.05,0.09
13.120,0.02,-0.04,0.03,0.06
13.130,-0.01,0.00,0.03,0.03
13.140,-0.04,0.04,0.04,0.07
13.150,-0.07,0.07,0.04,0.11
13.160,-0.10,0.10,0.04,0.14
13.171,-0.11,0.09,0.04,0.15
13.180,-0.15,0.05,0.06,0.16
13.191,-0.17,0.03,0.05,0.18
13.201,-0.16,0.03,0.03,0.16
13.211,-0.11,0.01,0.04,0.12
13.221,-0.07,0.01,0.02,0.08
13.231,-0.05,0.02,0.02,0.05
13.241,-0.04,0.03,0.01,0.05
13.251,-0.06,0.03,0.01,0.07
13.261,-0.08,0.02,-0.01,0.08
13.271,-0.09,0.00,0.02,0.09
13.281,-0.08,-0.01,0.02,0.09
13.291,-0.06,-0.02,0.03,0.07
13.301,-0.04,-0.02,0.04,0.06
13.311,0.03,-0.01,0.06,0.07
13.322,0.09,-0.03,0.05,0.10
13.332,0.10,-0.06,0.05,0.12
13.342,0.12,-0.06,0.08,0.15
13.352,0.16,-0.05,0.09,0.19
13.362,0.16,-0.02,0.09,0.19
13.372,0.13,0.01,0.08,0.16
13.382,0.10,0.04,0.06,0.12
13.392,0.06,0.03,0.06,0.09
13.402,0.01,0.01,0.05,0.05
13.412,-0.05,-0.02,0.04,0.06
13.422,-0.06,-0.05,0.04,0.09
13.432,-0.07,-0.03,0.02,0.08
13.442,-0.07,-0.01,0.01,0.08
13.452,-0.07,0.00,-0.01,0.07
13.462,-0.07,0.04,-0.02,0.08
13.473,-0.06,0.03,-0.04,0.08
13.482,-0.03,0.05,-0.05,0.08
13.493,-0.02,0.04,-0.06,0.08
13.503,0.02,0.02,-0.06,0.06
13.513,0.04,-0.00,-0.06,0.07
13.523,0.08,-0.03,-0.06,0.11
13.533,0.09,-0.08,-0.05,0.13
13.543,0.10,-0.10,-0.04,0.15
13.553,0.10,-0.10,-0.04,0.14
13.563,0.08,-0.09,-0.04,0.12
13.573,0.07,-0.06,-0.02,0.09
13.583,0.06,-0.04,-0.01,0.07
13.593,0.04,-0.00,-0.03,0.05
13.603,0.01,0.03,-0.03,0.04
13.613,-0.01,0.01,-0.02,0.02
13.623,-0.03,-0.00,-0.01,0.03
13.634,-0.01,-0.03,-0.02,0.04
13.644,0.01,-0.02,-0.02,0.03
13.654,0.06,-0.02,-0.03,0.07
13.664,0.09,-0.02,-0.02,0.09
13.674,0.09,-0.03,-0.01,0.09
13.684,0.05,-0.04,-0.00,0.06
13.694,0.03,-0.03,-0.01,0.04
13.704,0.00,-0.02,-0.01,0.02
13.714,-0.01,-0.01,-0.00,0.02
13.724,-0.05,-0.01,0.01,0.05
13.734,-0.06,-0.00,0.02,0.06
13.744,-0.06,0.02,0.02,0.07
13.754,-0.06,0.02,0.02,0.06
13.764,-0.08,0.03,0.04,0.10
13.775,-0.09,0.04,0.03,0.10
13.785,-0.07,0.04,0.03,0.09
13.795,-0.08,0.05,0.02,0.09
13.805,-0.08,0.06,0.03,0.10
13.815,-0.07,0.04,0.02,0.09
13.825,-0.03,0.01,0.03,0.04
13.835,-0.01,-0.01,0.02,0.02
13.845,0.00,-0.02,0.01,0.03
13.855,0.02,-0.04,-0.00,0.04
13.865,0.04,-0.04,-0.03,0.06
13.875,0.02,-0.03,-0.04,0.05
13.885,0.03,-0.05,-0.05,0.08
13.895,0.00,-0.05,-0.07,0.09
13.905,0.02,-0.04,-0.06,0.08
13.916,-0.00,-0.02,-0.05,0.05
13.926,0.03,-0.00,-0.04,0.05
13.936,0.03,-0.01,-0.02,0.04
13.946,0.05,-0.03,-0.03,0.07
13.956,0.05,-0.06,0.00,0.08
13.966,0.06,-0.05,0.02,0.08
13.976,0.06,-0.03,0.04,0.08
13.986,0.09,0.01,0.05,0.10
13.996,0.07,0.02,0.05,0.09
14.006,0.04,0.02,0.06,0.07
14.016,0.01,0.01,0.07,0.07
14.026,-0.01,0.02,0.07,0.08
14.036,-0.06,-0.00,0.08,0.10
14.046,-0.11,-0.01,0.07,0.13
14.057,-0.13,-0.02,0.04,0.14
14.067,-0.14,0.02,0.04,0.15
14.077,-0.15,0.03,0.01,0.16
14.087,-0.14,0.06,-0.03,0.16
14.097,-0.11,0.08,-0.07,0.15
14.107,-0.07,0.07,-0.06,0.11
14.117,-0.02,0.06,-0.08,0.10
14.127,0.01,0.03,-0.09,0.10
14.137,0.04,-0.02,-0.07,0.08
14.147,0.07,-0.08,-0.07,0.13
14.157,0.10,-0.09,-0.05,0.14
14.167,0.12,-0.07,-0.03,0.14
14.177,0.10,-0.07,-0.04,0.13
14.187,0.08,-0.05,-0.04,0.11
14.197,0.07,-0.04,-0.02,0.08
14.207,0.04,-0.01,-0.04,0.06
14.218,0.06,-0.01,-0.05,0.08
14.228,0.04,0.01,-0.05,0.06
14.238,0.02,-0.02,-0.04,0.04
14.248,0.03,-0.03,-0.04,0.06
14.258,0.04,-0.05,-0.04,0.07
14.268,0.03,-0.03,-0.04,0.06
14.278,-0.00,-0.04,-0.05,0.07
14.288,-0.04,-0.04,-0.05,0.07
14.298,-0.04,-0.00,-0.03,0.05
14.308,-0.05,0.02,-0.05,0.07
14.318,-0.05,0.01,-0.04,0.07
14.328,-0.03,0.03,-0.06,0.08
14.338,-0.02,0.03,-0.07,0.08
14.348,0.02,-0.00,-0.08,0.08
14.359,0.05,-0.03,-0.06,0.08
14.369,0.04,-0.06,-0.04,0.08
14.379,0.06,-0.08,-0.04,0.10
14.389,0.06,-0.05,-0.01,0.08
14.399,0.05,-0.04,-0.01,0.06
14.409,0.08,-0.03,-0.03,0.09
14.419,0.05,-0.01,-0.01,0.05
14.429,0.03,0.01,-0.02,0.04
14.439,-0.01,0.03,-0.03,0.05
14.449,-0.06,0.03,-0.04,0.08
14.459,-0.06,0.04,-0.04,0.08
14.469,-0.06,0.00,-0.04,0.07
14.479,-0.04,-0.01,0.00,0.04
14.489,-0.02,-0.01,0.02,0.04
14.499,0.01,-0.02,0.02,0.03
14.510,0.04,-0.03,0.03,0.06
14.520,0.03,-0.01,0.06,0.07
14.530,0.03,-0.00,0.06,0.07
14.540,0.01,-0.00,0.07,0.08
14.550,-0.01,0.01,0.09,0.09
14.560,0.00,0.00,0.11,0.11
14.570,0.02,-0.03,0.11,0.11
14.580,0.05,0.00,0.10,0.11
14.590,0.08,0.02,0.10,0.13
14.600,0.07,0.06,0.08,0.12
14.610,0.05,0.11,0.06,0.13
14.620,-0.01,0.12,0.04,0.12
14.630,-0.07,0.11,0.04,0.14
14.640,-0.13,0.08,0.05,0.16
14.651,-0.14,-0.01,0.04,0.15
14.661,-0.13,-0.10,0.03,0.17
14.671,-0.12,-0.16,0.02,0.20
14.681,-0.06,-0.17,-0.00,0.18
14.691,0.04,-0.10,-0.04,0.11
14.701,0.13,-0.00,-0.07,0.15
14.711,0.17,0.07,-0.07,0.20
14.721,0.16,0.09,-0.10,0.21
14.731,0.14,0.06,-0.10,0.18
14.741,0.12,-0.01,-0.06,0.13
14.751,0.10,-0.06,-0.05,0.13
14.761,0.12,-0.12,-0.04,0.18
14.771,0.10,-0.16,-0.02,0.19
14.781,0.08,-0.17,-0.04,0.19
14.791,0.06,-0.16,-0.04,0.18
14.802,0.03,-0.13,-0.05,0.14
14.812,-0.02,-0.06,-0.04,0.07
14.822,-0.10,0.03,-0.05,0.11
14.832,-0.13,0.09,-0.04,0.16
14.842,-0.15,0.13,-0.01,0.20
14.852,-0.16,0.10,-0.00,0.18
14.862,-0.13,0.09,0.01,0.16
14.872,-0.11,0.08,-0.02,0.14
14.882,-0.06,0.07,-0.01,0.09
14.892,-0.02,0.02,0.01,0.03
14.902,0.01,-0.03,0.03,0.04
14.912,0.01,-0.04,0.02,0.05
14.922,0.02,-0.04,0.03,0.05
14.932,-0.01,-0.03,0.07,0.08
14.943,-0.03,0.01,0.08,0.09
14.953,-0.08,0.01,0.09,0.12
14.963,-0.10,0.02,0.11,0.16
14.973,-0.12,0.03,0.15,0.20
14.983,-0.12,0.03,0.12,0.17
14.993,-0.08,0.03,0.12,0.15
15.003,-0.04,0.02,0.09,0.10
15.013,0.01,0.02,0.05,0.06
15.023,0.06,0.05,0.04,0.09
15.033,0.09,0.04,-0.01,0.10
15.043,0.06,0.00,-0.04,0.07
15.053,0.05,-0.03,-0.06,0.08
15.063,0.05,-0.07,-0.04,0.09
15.073,0.04,-0.09,-0.02,0.10
15.084,0.04,-0.10,-0.01,0.11
15.094,0.04,-0.09,0.01,0.10
15.104,0.03,-0.08,0.01,0.09
15.114,0.06,-0.07,0.01,0.09
15.124,0.07,0.00,0.03,0.07
15.134,0.02,0.06,0.04,0.07
15.144,-0.03,0.10,0.04,0.11
15.154,-0.07,0.12,0.05,0.14
15.164,-0.10,0.11,0.03,0.16
15.174,-0.12,0.11,0.05,0.17
15.184,-0.12,0.09,0.06,0.16
15.194,-0.11,0.08,0.07,0.15
15.205,-0.09,0.03,0.05,0.10
15.214,-0.07,-0.00,0.04,0.08
15.225,-0.07,-0.02,0.02,0.08
15.235,-0.05,-0.03,0.01,0.06
15.245,-0.05,-0.05,0.01,0.07
15.255,-0.03,-0.05,-0.01,0.05
15.265,-0.01,-0.05,-0.00,0.06
15.275,0.01,-0.07,-0.02,0.07
15.285,0.00,-0.06,-0.05,0.08
15.295,0.00,-0.03,-0.06,0.06
15.305,-0.02,-0.02,-0.07,0.07
15.315,-0.02,0.01,-0.08,0.08
15.325,-0.03,0.04,-0.07,0.08
15.335,-0.03,0.04,-0.07,0.09
15.345,0.00,0.06,-0.03,0.07
15.355,0.04,0.07,-0.01,0.08
15.365,0.10,0.10,0.02,0.14
15.375,0.13,0.09,0.06,0.17
15.386,0.16,0.05,0.07,0.18
15.396,0.15,0.00,0.08,0.17
15.406,0.12,-0.07,0.06,0.16
15.416,0.12,-0.13,0.06,0.19
15.426,0.10,-0.19,0.05,0.22
15.436,0.07,-0.22,0.06,0.24
15.446,0.06,-0.22,0.05,0.24
15.456,0.09,-0.17,0.05,0.19
15.466,0.07,-0.11,0.04,0.14
15.476,0.05,-0.03,0.03,0.07
15.486,0.03,0.03,0.03,0.05
15.496,-0.01,0.07,0.01,0.07
15.506,-0.05,0.08,0.01,0.10
15.516,-0.06,0.07,-0.02,0.10
15.527,-0.09,0.08,-0.03,0.13
15.537,-0.10,0.09,-0.02,0.14
15.547,-0.08,0.08,-0.01,0.11
15.557,-0.07,0.04,-0.03,0.08
15.567,-0.05,0.01,-0.03,0.06
15.577,-0.05,-0.01,-0.02,0.06
15.587,-0.03,-0.02,-0.03,0.05
15.597,0.00,-0.02,-0.04,0.05
15.607,0.03,-0.02,-0.03,0.04
15.617,0.03,-0.01,-0.04,0.05
15.627,0.01,-0.01,-0.03,0.03
15.637,-0.00,-0.01,-0.04,0.04
15.647,-0.01,-0.02,-0.04,0.04
15.657,-0.03,-0.03,-0.03,0.05
15.667,-0.02,-0.04,-0.02,0.05
15.678,0.01,-0.01,-0.02,0.03
15.688,-0.01,-0.01,-0.01,0.02
15.698,0.01,-0.03,-0.02,0.04
15.708,0.04,-0.03,-0.01,0.05
15.718,0.03,-0.04,-0.03,0.05
15.728,0.07,-0.03,-0.01,0.07
15.738,0.08,-0.02,-0.02,0.08
15.748,0.09,0.00,-0.01,0.09
15.758,0.07,-0.01,-0.02,0.08
15.768,0.02,0.01,-0.04,0.04
15.778,0.01,0.01,-0.04,0.04
15.788,-0.04,0.01,-0.03,0.06
15.798,-0.05,-0.01,-0.02,0.05
15.809,-0.05,-0.04,0.01,0.06
15.818,-0.04,-0.05,0.01,0.06
15.829,-0.03,-0.04,0.00,0.05
15.839,-0.02,-0.05,-0.00,0.05
15.849,0.01,-0.05,-0.02,0.05
15.859,0.01,-0.03,-0.02,0.04
15.869,0.01,-0.00,-0.02,0.03
15.879,0.01,0.01,-0.04,0.04
15.889,0.00,0.01,-0.05,0.05
15.899,0.01,0.03,-0.05,0.06
15.909,-0.01,0.01,-0.08,0.08
15.919,-0.00,-0.01,-0.07,0.07
15.929,-0.01,-0.02,-0.08,0.09
15.939,0.04,-0.03,-0.07,0.09
15.949,0.07,-0.03,-0.07,0.10
15.960,0.09,-0.04,-0.06,0.11
15.970,0.07,-0.05,-0.04,0.09
15.980,0.03,-0.07,-0.02,0.08
15.990,-0.02,-0.07,-0.01,0.07
16.000,-0.04,-0.03,-0.01,0.05
16.010,-0.07,0.01,0.02,0.07
16.020,-0.08,0.04,0.04,0.10
16.030,-0.07,0.09,0.04,0.12
16.040,-0.07,0.07,0.03,0.11
16.050,-0.05,0.03,0.01,0.06
16.060,-0.01,0.03,0.04,0.05
16.070,0.00,0.02,0.03,0.04
16.080,0.02,0.01,0.05,0.05
16.090,0.06,-0.02,0.04,0.07
16.100,0.07,-0.03,0.05,0.09
16.111,0.07,-0.04,0.02,0.08
16.121,0.03,-0.05,0.02,0.06
16.131,0.03,-0.04,0.02,0.05
16.141,-0.01,-0.04,0.01,0.04
16.151,-0.03,-0.03,0.01,0.04
16.161,-0.01,-0.01,-0.00,0.02
16.171,-0.01,-0.00,-0.00,0.01
16.181,-0.01,-0.00,0.01,0.01
16.191,0.02,0.01,-0.01,0.02
16.201,0.03,-0.01,-0.01,0.03
16.211,0.04,-0.02,-0.00,0.04
16.221,0.03,-0.03,-0.00,0.05
16.231,0.04,-0.02,0.01,0.05
16.241,0.04,-0.00,0.03,0.05
16.251,0.02,0.00,0.06,0.06
16.262,-0.01,0.02,0.07,0.07
16.272,-0.03,0.02,0.08,0.09
16.282,-0.06,0.04,0.09,0.12
16.292,-0.06,0.01,0.07,0.09
16.302,-0.05,0.02,0.05,0.07
16.312,-0.05,0.04,0.05,0.08
16.322,-0.01,0.05,0.04,0.07
16.332,0.02,0.03,0.02,0.04
16.342,0.01,-0.02,-0.01,0.02
16.352,-0.00,-0.05,-0.02,0.06
16.362,-0.01,-0.06,-0.03,0.07
16.372,-0.01,-0.06,-0.02,0.07
16.382,-0.02,-0.06,-0.03,0.07
16.392,-0.00,-0.04,-0.04,0.06
16.402,0.01,0.01,-0.05,0.05
16.412,-0.02,0.01,-0.07,0.07
16.423,-0.01,0.01,-0.05,0.06
16.433,-0.02,-0.00,-0.05,0.06
16.443,-0.00,-0.01,-0.04,0.04
16.453,0.00,-0.01,-0.03,0.03
16.463,0.01,-0.03,-0.01,0.03
16.473,0.02,-0.01,-0.01,0.02
16.483,0.02,-0.00,-0.00,0.02
16.493,0.04,-0.00,0.01,0.05
16.503,0.04,0.01,0.01,0.04
16.513,0.06,0.01,-0.01,0.06
16.523,0.04,0.02,0.01,0.04
16.533,0.03,-0.01,0.00,0.04
16.543,0.02,-0.02,-0.01,0.02
16.554,0.01,-0.03,-0.01,0.03
16.563,0.01,-0.04,-0.00,0.04
16.574,-0.00,-0.03,-0.03,0.04
16.584,-0.00,-0.03,-0.03,0.04
16.594,-0.00,-0.03,-0.01,0.03
16.604,-0.01,-0.01,-0.02,0.02
16.614,0.01,-0.01,-0.02,0.02
16.624,-0.01,-0.01,-0.03,0.03
16.634,-0.01,-0.03,-0.01,0.03
16.644,-0.01,-0.03,-0.00,0.03
16.654,-0.00,0.01,-0.00,0.01
16.664,0.01,0.04,0.02,0.05
16.675,0.02,0.07,0.03,0.08
16.684,-0.00,0.06,0.03,0.07
16.695,-0.04,0.05,0.03,0.07
16.705,-0.04,0.02,0.03,0.06
16.715,-0.03,-0.01,0.04,0.05
16.725,-0.04,-0.02,0.04,0.06
16.735,-0.02,-0.05,0.02,0.05
16.745,0.01,-0.06,0.01,0.07
16.755,0.03,-0.05,0.02,0.06
16.765,0.02,-0.03,0.00,0.04
16.775,0.03,-0.02,0.01,0.04
16.785,0.00,-0.01,0.01,0.01
16.795,-0.00,0.02,0.00,0.02
16.805,-0.00,0.02,0.01,0.03
16.815,0.01,0.03,0.00,0.03
16.825,0.03,0.03,-0.02,0.05
16.836,0.04,0.00,-0.04,0.06
16.845,0.05,-0.01,-0.02,0.05
16.856,0.03,-0.03,-0.03,0.05
16.866,0.00,-0.06,-0.03,0.06
16.876,-0.01,-0.05,-0.03,0.06
16.886,-0.02,-0.06,-0.03,0.08
16.896,-0.05,-0.05,-0.03,0.08
16.906,-0.04,-0.02,-0.02,0.05
16.916,-0.00,0.00,-0.03,0.03
16.926,-0.00,0.00,-0.04,0.04
16.936,-0.01,0.01,-0.01,0.02
16.946,-0.02,0.01,-0.03,0.03
16.956,-0.02,0.01,-0.00,0.02
16.966,-0.02,0.03,0.03,0.05
16.976,-0.02,0.03,0.05,0.06
16.986,-0.04,0.02,0.06,0.08
16.997,-0.04,0.03,0.08,0.09
17.007,-0.04,0.01,0.06,0.07
17.017,-0.03,0.00,0.05,0.06
17.027,-0.01,-0.02,0.05,0.05
17.037,0.02,-0.03,0.04,0.06
17.047,0.03,-0.04,0.02,0.06
17.057,0.04,-0.04,0.02,0.06
17.067,0.07,-0.02,0.01,0.07
17.077,0.05,-0.03,0.00,0.06
17.087,0.03,-0.04,-0.02,0.05
17.097,0.01,-0.04,-0.03,0.05
17.107,-0.02,-0.05,-0.02,0.06
17.117,-0.04,-0.05,-0.02,0.07
17.127,-0.04,-0.05,-0.02,0.06
17.138,-0.04,-0.01,-0.03,0.05
17.148,-0.05,0.01,-0.02,0.05
17.158,-0.05,0.03,-0.01,0.06
17.168,-0.04,0.05,-0.01,0.06
17.178,-0.06,0.07,-0.00,0.09
17.188,-0.06,0.06,0.03,0.09
17.198,-0.05,0.04,0.04,0.07
17.208,-0.01,0.01,0.06,0.06
17.218,0.00,-0.01,0.07,0.07
17.228,0.03,-0.02,0.08,0.09
17.238,0.04,-0.03,0.07,0.09
17.248,0.03,-0.04,0.06,0.09
17.258,0.05,-0.03,0.05,0.07
17.268,0.03,-0.03,0.03,0.06
17.278,0.03,-0.04,0.03,0.05
17.288,0.01,-0.04,0.01,0.04
17.299,-0.01,-0.02,-0.03,0.04
17.309,0.00,-0.00,-0.02,0.02
17.319,-0.00,0.00,-0.02,0.02
17.329,-0.00,0.02,-0.02,0.02
17.339,-0.02,0.03,-0.00,0.03
17.349,-0.03,0.03,0.01,0.04
17.359,-0.04,0.03,0.01,0.05
17.369,-0.03,0.02,0.03,0.05
17.379,-0.05,-0.01,0.03,0.06
17.389,-0.03,-0.01,0.04,0.05
17.399,0.01,0.00,0.03,0.03
17.409,0.01,0.02,0.03,0.04
17.420,0.01,0.01,0.02,0.03
17.429,0.02,0.00,0.00,0.02
17.440,0.02,-0.02,-0.01,0.03
17.450,-0.01,-0.03,-0.00,0.04
17.460,-0.01,-0.08,-0.01,0.08
17.470,0.03,-0.07,-0.00,0.08
17.480,0.02,-0.07,-0.01,0.07
17.490,0.03,-0.03,-0.01,0.04
17.500,0.05,0.01,-0.00,0.05
17.510,0.05,0.04,-0.01,0.07
17.520,0.04,0.05,0.02,0.07
17.530,0.01,0.03,0.03,0.04
17.540,0.01,-0.01,0.02,0.02
17.550,0.02,-0.04,0.02,0.05
17.560,0.05,-0.06,-0.01,0.08
17.570,0.07,-0.06,-0.02,0.09
17.581,0.06,-0.06,-0.01,0.09
17.591,0.06,-0.08,-0.02,0.10
17.601,0.03,-0.06,-0.01,0.06
17.611,-0.00,-0.05,-0.02,0.05
17.621,-0.02,-0.02,-0.02,0.03
17.631,-0.06,0.04,-0.01,0.07
17.641,-0.08,0.09,-0.01,0.12
17.651,-0.06,0.10,0.01,0.12
17.661,-0.08,0.07,-0.00,0.10
17.671,-0.06,0.02,0.01,0.07
17.681,-0.04,-0.01,0.02,0.05
17.691,-0.00,0.00,0.02,0.02
17.702,0.01,-0.00,0.02,0.03
17.712,-0.02,0.01,0.03,0.03
17.722,-0.07,0.02,0.05,0.09
17.732,-0.10,0.00,0.06,0.12
17.742,-0.12,0.02,0.05,0.13
17.752,-0.09,0.05,0.02,0.11
17.762,-0.03,0.06,0.00,0.06
17.772,0.04,0.03,0.00,0.05
17.782,0.09,-0.01,-0.01,0.09
17.792,0.14,-0.06,-0.02,0.15
17.802,0.13,-0.10,-0.02,0.16
17.812,0.13,-0.13,-0.03,0.18
17.822,0.13,-0.13,-0.03,0.18
17.832,0.12,-0.16,-0.03,0.20
17.842,0.10,-0.14,-0.05,0.18
17.852,0.07,-0.12,-0.04,0.14
17.862,0.03,-0.06,-0.04,0.08
17.873,-0.07,0.02,-0.05,0.09
17.883,-0.16,0.08,-0.03,0.18
17.893,-0.25,0.17,0.01,0.31
17.903,-0.31,0.24,0.04,0.39
17.913,-0.32,0.29,0.07,0.44
17.923,-0.31,0.30,0.09,0.45
17.933,-0.27,0.24,0.12,0.38
17.943,-0.19,0.17,0.12,0.28
17.953,-0.10,0.09,0.11,0.17
17.963,-0.08,0.02,0.09,0.12
17.973,-0.04,-0.03,0.05,0.07
17.983,-0.02,-0.10,0.00,0.10
17.993,0.01,-0.12,-0.07,0.14
18.003,0.08,-0.13,-0.10,0.18
18.013,0.11,-0.14,-0.13,0.23
18.024,0.14,-0.15,-0.19,0.28
18.034,0.16,-0.12,-0.20,0.29
18.044,0.19,-0.10,-0.23,0.31
18.054,0.24,-0.08,-0.28,0.38
18.064,0.28,-0.11,-0.31,0.43
18.074,0.32,-0.14,-0.30,0.46
18.084,0.37,-0.19,-0.28,0.50
18.094,0.39,-0.23,-0.23,0.51
18.104,0.41,-0.21,-0.18,0.49
18.114,0.40,-0.17,-0.15,0.46
18.124,0.36,-0.15,-0.13,0.41
18.134,0.28,-0.17,-0.07,0.34
18.144,0.17,-0.20,-0.03,0.26
18.155,0.04,-0.18,0.02,0.18
18.164,-0.07,-0.09,0.08,0.14
18.175,-0.15,0.02,0.10,0.18
18.185,-0.18,0.09,0.10,0.23
18.195,-0.23,0.13,0.12,0.29
18.205,-0.33,0.11,0.14,0.37
18.215,-0.36,0.14,0.16,0.42
18.225,-0.35,0.21,0.17,0.44
18.235,-0.26,0.24,0.13,0.38
18.245,-0.06,0.24,0.07,0.25
18.255,0.00,0.12,0.01,0.12
18.265,-0.00,0.03,0.05,0.06
18.275,-0.04,0.01,0.09,0.10
18.285,-0.12,-0.00,0.11,0.17
18.295,-0.17,0.06,0.17,0.25
18.306,-0.17,0.07,0.20,0.27
18.315,-0.18,0.04,0.22,0.28
18.326,-0.12,0.01,0.19,0.23
18.336,-0.03,-0.00,0.17,0.17
18.346,0.09,-0.03,0.08,0.13
18.356,0.18,-0.08,0.01,0.19
18.366,0.22,-0.10,-0.04,0.25
18.376,0.26,-0.13,-0.11,0.31
18.386,0.30,-0.11,-0.16,0.36
18.396,0.26,-0.11,-0.20,0.34
18.406,0.18,-0.11,-0.20,0.29
18.416,0.08,-0.15,-0.14,0.22
18.426,-0.04,-0.14,-0.05,0.15
18.436,-0.06,-0.07,-0.01,0.09
18.447,-0.04,-0.03,0.01,0.05
18.457,-0.03,0.03,0.09,0.10
18.467,0.03,0.10,0.14,0.17
18.477,-0.04,0.07,0.13,0.15
18.487,-0.17,0.05,0.15,0.23
18.497,-0.17,0.09,0.15,0.25
18.507,-0.13,0.15,0.11,0.23
18.517,-0.13,0.15,0.06,0.21
18.527,-0.21,0.06,0.05,0.23
18.537,-0.28,0.02,0.08,0.29
18.547,-0.24,0.05,0.09,0.26
18.557,-0.20,0.09,0.04,0.23
18.567,-0.13,0.13,0.03,0.18
18.577,-0.06,0.12,-0.00,0.13
18.588,0.04,0.08,-0.01,0.09
18.598,0.09,0.03,-0.03,0.10
18.608,0.11,-0.06,-0.07,0.14
18.618,0.13,-0.12,-0.11,0.21
18.628,0.17,-0.17,-0.14,0.27
18.638,0.15,-0.17,-0.15,0.27
18.648,0.09,-0.15,-0.19,0.25
18.658,0.05,-0.07,-0.18,0.20
18.668,-0.01,-0.02,-0.18,0.18
18.678,-0.03,0.02,-0.15,0.16
18.688,-0.03,0.03,-0.12,0.13
18.698,-0.02,0.02,-0.08,0.08
18.708,-0.02,0.02,-0.06,0.06
18.718,0.01,-0.02,-0.05,0.05
18.728,0.04,-0.01,-0.04,0.06
18.738,0.05,0.01,-0.01,0.05
18.748,0.08,0.02,0.00,0.08
18.759,0.07,0.01,0.01,0.07
18.769,0.04,-0.02,-0.01,0.05
18.779,0.01,-0.05,-0.02,0.06
18.789,-0.02,-0.05,-0.05,0.08
18.799,-0.03,-0.02,-0.07,0.08
18.809,-0.03,0.01,-0.08,0.09
18.819,-0.03,0.00,-0.08,0.08
18.829,-0.01,-0.00,-0.05,0.05
18.839,0.01,0.01,-0.02,0.03
18.849,0.02,0.03,-0.02,0.04
18.859,0.04,0.03,0.00,0.05
18.869,0.02,0.02,0.00,0.03
18.879,0.01,0.02,-0.00,0.03
18.890,0.01,0.01,0.01,0.02
18.900,0.00,-0.01,-0.02,0.02
18.910,-0.00,-0.03,-0.05,0.05
18.920,-0.00,-0.08,-0.08,0.11
18.930,-0.02,-0.06,-0.09,0.11
18.940,-0.04,-0.03,-0.14,0.14
18.950,-0.11,-0.05,-0.15,0.19
18.960,-0.19,-0.07,-0.13,0.24
18.970,-0.25,-0.04,-0.08,0.27
18.980,-0.10,0.10,-0.12,0.18
18.990,-0.05,0.05,-0.20,0.21
19.000,0.07,0.07,-0.25,0.27
19.010,0.29,0.18,-0.21,0.40
19.020,0.28,0.05,-0.05,0.29
19.030,0.08,-0.14,0.12,0.20
19.041,-0.04,-0.17,0.19,0.25
19.051,0.00,-0.02,0.12,0.12
19.061,-0.04,0.12,0.14,0.18
19.071,-0.15,0.25,0.22,0.37
19.081,-0.26,0.26,0.27,0.46
19.091,-0.25,0.25,0.27,0.45
19.101,-0.20,0.24,0.24,0.39
19.111,-0.21,0.22,0.19,0.36
19.121,-0.26,0.12,0.17,0.33
19.131,-0.28,-0.00,0.17,0.33
19.141,-0.23,-0.06,0.14,0.28
19.151,-0.17,-0.09,0.09,0.21
19.161,-0.10,-0.13,-0.00,0.16
19.172,0.01,-0.13,-0.10,0.17
19.181,0.10,-0.16,-0.11,0.22
19.192,0.17,-0.18,-0.06,0.26
19.202,0.21,-0.18,-0.03,0.28
19.212,0.21,-0.18,-0.09,0.30
19.222,0.23,-0.16,-0.17,0.33
19.232,0.21,-0.16,-0.18,0.32
19.242,0.11,-0.17,-0.20,0.28
19.252,0.04,-0.16,-0.20,0.26
19.262,0.02,-0.11,-0.17,0.20
19.272,0.07,0.01,-0.13,0.15
19.282,0.12,0.15,-0.10,0.21
19.292,0.13,0.23,-0.07,0.27
19.302,0.08,0.20,-0.02,0.22
19.312,0.00,0.10,0.03,0.10
19.322,0.01,0.01,0.06,0.06
19.333,0.03,-0.07,0.11,0.14
19.343,0.03,-0.13,0.16,0.21
19.353,0.05,-0.14,0.19,0.24
19.363,0.11,-0.11,0.21,0.26
19.373,0.14,-0.07,0.22,0.27
19.383,0.13,-0.02,0.22,0.25
19.393,0.13,-0.01,0.21,0.24
19.403,0.08,-0.02,0.18,0.20
19.413,0.04,-0.08,0.11,0.14
19.423,0.06,-0.10,0.09,0.15
19.433,0.13,-0.11,0.10,0.19
19.443,0.09,-0.13,0.08,0.18
19.453,0.08,-0.12,0.03,0.15
19.463,0.15,-0.05,0.01,0.16
19.474,0.16,-0.03,-0.01,0.16
19.484,0.09,-0.03,0.01,0.10
19.494,0.05,-0.03,0.02,0.06
19.504,0.05,-0.03,0.02,0.06
19.514,0.05,-0.05,0.04,0.08
19.524,0.03,-0.06,0.04,0.08
19.534,0.03,-0.05,0.03,0.07
19.544,0.04,-0.05,0.03,0.07
19.554,0.03,-0.04,0.02,0.06
19.564,0.01,-0.03,0.01,0.03
19.574,-0.09,-0.01,-0.03,0.10
19.584,-0.12,-0.00,-0.10,0.15
19.594,0.07,0.03,-0.06,0.09
19.604,0.12,0.02,0.00,0.12
19.614,0.03,-0.04,0.02,0.06
19.625,0.02,-0.08,0.01,0.08
19.635,0.02,-0.08,0.03,0.09
19.645,-0.03,-0.08,0.05,0.10
19.655,-0.04,-0.01,0.06,0.07
19.665,-0.00,0.07,0.08,0.10
19.675,-0.02,0.13,0.10,0.17
19.685,-0.06,0.14,0.09,0.17
19.695,-0.10,0.08,0.09,0.15
19.705,-0.13,-0.03,0.06,0.15
19.715,-0.13,-0.07,0.04,0.15
19.725,-0.10,-0.09,0.03,0.13
19.735,-0.00,-0.06,0.03,0.07
19.745,0.00,-0.07,0.01,0.07
19.755,0.00,-0.03,-0.02,0.03
19.766,0.05,0.07,0.01,0.09
19.776,-0.04,0.08,0.04,0.10
19.786,-0.08,0.12,0.08,0.17
19.796,-0.12,0.11,0.09,0.19
19.806,-0.21,0.04,0.07,0.22
19.816,-0.10,0.05,0.06,0.13
19.826,-0.02,0.06,0.08,0.10
19.836,-0.00,0.03,0.03,0.04
19.846,0.05,0.02,-0.02,0.06
19.856,0.09,-0.00,-0.04,0.10
19.866,0.06,-0.06,-0.04,0.09
19.876,0.02,-0.07,-0.05,0.09
19.886,0.07,-0.02,-0.05,0.09
19.896,0.11,0.03,0.02,0.11
19.906,0.10,0.08,0.15,0.20
19.917,-0.13,0.01,0.21,0.25
19.927,-0.27,-0.05,0.09,0.29
19.937,-0.14,0.01,-0.02,0.14
19.947,-0.06,0.02,-0.06,0.08
19.957,-0.08,0.00,-0.09,0.12
19.967,-0.05,0.01,-0.13,0.14
19.977,0.01,-0.04,-0.10,0.11
19.987,-0.05,-0.10,-0.03,0.11
19.997,-0.06,-0.07,0.02,0.09
20.007,-0.01,-0.02,0.03,0.04
20.017,-0.05,0.04,0.05,0.08
20.027,-0.11,0.11,0.03,0.16
20.037,-0.13,0.16,0.00,0.21
20.047,-0.18,0.15,0.01,0.23
20.057,-0.17,0.14,0.02,0.22
20.068,-0.23,0.04,0.05,0.24
20.078,-0.11,0.01,0.05,0.12
20.088,0.02,-0.00,0.08,0.08
20.098,0.03,-0.06,0.13,0.15
20.108,0.05,-0.10,0.15,0.19
20.118,0.05,-0.09,0.12,0.16
20.128,0.09,-0.04,0.10,0.14
20.138,0.07,0.00,0.07,0.10
20.148,0.08,0.03,0.06,0.11
20.158,0.06,0.02,0.03,0.07
20.168,0.04,-0.00,0.02,0.04
20.178,-0.02,-0.01,0.03,0.04
20.188,-0.04,-0.02,0.02,0.05
20.198,0.00,-0.02,0.00,0.02
20.209,0.08,-0.00,-0.01,0.08
20.219,0.09,-0.02,-0.01,0.09
20.229,0.05,-0.06,-0.02,0.08
20.239,0.04,-0.07,-0.01,0.08
20.249,0.02,-0.05,-0.02,0.06
20.259,0.01,-0.01,-0.01,0.02
20.269,-0.01,0.03,-0.01,0.03
20.279,0.01,0.05,-0.05,0.07
20.289,0.00,0.05,-0.03,0.06
20.299,-0.04,-0.01,-0.03,0.05
20.309,-0.06,-0.06,-0.02,0.08
20.319,-0.03,-0.05,-0.02,0.07
20.329,-0.00,-0.03,-0.02,0.03
20.339,0.05,-0.01,-0.02,0.05
20.349,0.04,0.00,-0.04,0.06
20.360,0.03,0.01,-0.03,0.04
20.370,0.06,-0.00,-0.01,0.06
20.380,0.02,-0.01,0.02,0.03
20.390,0.00,-0.03,0.03,0.04
20.400,-0.03,-0.05,0.02,0.06
20.410,-0.02,-0.06,0.01,0.06
20.420,-0.02,-0.05,0.01,0.05
20.430,-0.04,-0.03,-0.02,0.05
20.440,-0.06,0.03,-0.01,0.06
20.450,-0.01,0.06,0.01,0.06
20.460,0.02,0.06,0.02,0.06
20.470,-0.02,0.03,0.03,0.05
20.480,-0.05,-0.01,0.01,0.06
20.490,-0.04,-0.01,0.01,0.04
20.501,0.00,-0.01,-0.02,0.02
20.510,0.04,0.02,0.00,0.05
20.521,0.09,0.01,0.00,0.09
20.531,0.09,-0.01,-0.00,0.09
20.541,0.10,-0.04,-0.01,0.10
20.551,0.06,-0.09,-0.02,0.11
20.561,0.04,-0.11,-0.02,0.12
20.571,-0.01,-0.13,-0.05,0.14
20.581,-0.02,-0.10,-0.07,0.13
20.591,-0.03,-0.04,-0.07,0.08
20.601,-0.01,0.03,-0.09,0.09
20.611,-0.02,0.05,-0.09,0.11
20.621,-0.02,0.07,-0.06,0.09
20.631,-0.03,0.05,-0.06,0.08
20.642,-0.02,0.00,-0.04,0.05
20.652,-0.04,-0.02,-0.02,0.05
20.662,-0.02,-0.02,0.01,0.03
20.672,-0.03,-0.04,0.01,0.05
20.682,-0.03,-0.03,0.01,0.05
20.692,-0.02,0.01,-0.01,0.02
20.702,-0.01,0.03,-0.02,0.03
20.712,-0.00,0.04,-0.02,0.05
20.722,0.02,0.04,-0.05,0.06
20.732,0.01,0.02,-0.06,0.06
20.742,0.01,-0.03,-0.08,0.08
20.752,0.04,-0.06,-0.12,0.14
20.762,0.07,-0.08,-0.10,0.14
20.772,0.04,-0.07,-0.07,0.11
20.782,0.01,-0.03,-0.04,0.05
20.792,0.00,-0.01,-0.01,0.01
20.803,0.02,0.04,0.05,0.06
20.813,-0.00,0.01,0.05,0.06
20.823,-0.02,0.01,0.07,0.08
20.833,-0.04,0.00,0.05,0.07
20.843,-0.04,0.01,-0.00,0.04
20.853,0.02,0.04,-0.07,0.08
20.863,0.07,0.02,-0.08,0.11
20.873,0.10,-0.06,-0.09,0.15
20.883,0.11,-0.14,-0.13,0.22
20.893,0.14,-0.13,-0.20,0.28
20.903,0.15,-0.12,-0.22,0.30
20.913,0.18,-0.13,-0.21,0.31
20.923,0.16,-0.12,-0.20,0.28
20.933,0.14,-0.09,-0.16,0.22
20.944,0.11,-0.06,-0.11,0.17
20.954,0.10,-0.04,-0.06,0.13
20.964,0.12,-0.03,0.00,0.12
20.974,0.07,0.01,0.08,0.11
20.984,0.02,0.04,0.13,0.14
20.994,-0.01,0.04,0.12,0.13
21.004,-0.01,0.04,0.12,0.13
21.014,-0.04,0.01,0.08,0.09
21.024,-0.05,-0.02,0.05,0.07
21.034,-0.04,-0.08,0.05,0.10
21.044,-0.09,-0.10,0.06,0.14
21.054,-0.08,-0.08,0.06,0.13
21.064,-0.05,0.01,0.08,0.09
21.074,-0.04,0.11,0.08,0.14
21.084,-0.06,0.16,0.02,0.17
21.094,-0.13,0.15,-0.01,0.19
21.105,-0.18,0.08,-0.06,0.21
21.115,-0.15,0.01,-0.02,0.15
21.125,-0.09,-0.04,0.09,0.13
21.135,-0.14,-0.06,0.16,0.22
21.145,-0.20,-0.01,0.16,0.25
21.155,-0.18,0.05,0.16,0.25
21.165,-0.17,0.11,0.18,0.27
21.175,-0.20,0.11,0.12,0.26
21.185,-0.16,0.14,-0.01,0.21
21.195,-0.09,0.10,-0.08,0.15
21.205,0.02,0.05,-0.11,0.12
21.215,0.15,-0.00,-0.09,0.18
21.225,0.25,0.00,-0.03,0.25
21.235,0.23,-0.02,0.04,0.23
21.246,0.12,-0.09,0.05,0.16
21.256,0.00,-0.11,0.06,0.13
21.266,-0.08,-0.12,-0.06,0.16
21.276,0.02,-0.07,-0.13,0.15
21.286,0.03,-0.04,-0.14,0.15
21.296,-0.02,-0.07,-0.17,0.18
21.306,0.00,-0.10,-0.16,0.19
21.316,-0.02,-0.10,-0.17,0.20
21.326,-0.01,-0.08,-0.23,0.24
21.336,-0.05,-0.09,-0.29,0.31
21.346,-0.13,-0.14,-0.36,0.41
21.356,-0.16,-0.24,-0.46,0.55
21.366,-0.01,-0.20,-0.44,0.49
21.377,0.06,-0.10,-0.33,0.35
21.387,0.07,-0.02,-0.25,0.26
21.397,0.18,0.11,-0.14,0.25
21.407,0.23,0.19,0.03,0.30
21.417,0.19,0.20,0.12,0.30
21.427,0.13,0.14,0.20,0.28
21.437,0.01,0.06,0.25,0.25
21.447,-0.04,0.02,0.28,0.28
21.457,0.00,0.00,0.28,0.28
21.467,0.07,0.02,0.30,0.31
21.477,0.05,0.06,0.35,0.36
21.487,0.00,0.11,0.37,0.38
21.497,-0.08,0.08,0.42,0.43
21.507,-0.05,0.05,0.46,0.47
21.517,-0.04,-0.04,0.35,0.36
21.528,-0.01,-0.11,0.17,0.21
21.538,0.03,-0.17,0.03,0.17
21.548,0.11,-0.17,-0.09,0.22
21.558,0.29,-0.11,-0.13,0.34
21.568,0.32,-0.12,-0.15,0.37
21.578,0.18,-0.24,-0.09,0.31
21.588,0.18,-0.19,0.05,0.27
21.598,0.15,-0.19,0.11,0.27
21.608,0.31,-0.10,0.05,0.33
21.618,0.14,-0.22,-0.00,0.26
21.628,0.20,-0.08,0.07,0.23
21.638,0.21,0.02,0.22,0.30
21.648,0.08,0.13,0.37,0.40
21.658,-0.12,0.17,0.42,0.47
21.669,-0.31,0.22,0.43,0.57
21.678,-0.35,0.29,0.36,0.58
21.689,-0.33,0.41,0.30,0.61
21.699,-0.40,0.48,0.24,0.67
21.709,-0.52,0.42,0.14,0.68
21.719,-0.48,0.31,0.02,0.57
21.729,-0.33,0.24,-0.08,0.41
21.739,-0.22,0.16,-0.12,0.30
21.749,-0.22,-0.00,-0.11,0.25
21.759,0.04,-0.00,0.03,0.05
21.769,0.08,-0.23,-0.21,0.32
21.779,0.15,-0.27,-0.50,0.59
21.789,0.16,-0.21,-0.60,0.66
21.799,0.03,-0.13,-0.60,0.61
21.809,0.10,0.04,-0.46,0.47
21.819,0.04,0.11,-0.29,0.31
21.830,-0.37,-0.21,-0.27,0.51
21.840,-0.54,-0.60,-0.45,0.92
21.850,-0.03,-0.40,-0.66,0.77
21.860,0.26,-0.13,-0.68,0.74
21.870,0.34,0.12,-0.55,0.65
21.880,0.38,0.27,-0.31,0.56
21.890,0.29,0.18,-0.14,0.37
21.900,0.13,0.01,-0.05,0.14
21.910,0.01,-0.10,0.05,0.11
21.920,-0.04,-0.06,0.16,0.18
21.930,-0.20,-0.02,0.20,0.28
21.940,-0.32,0.01,0.21,0.38
21.950,-0.23,0.15,0.24,0.37
21.960,-0.13,0.25,0.27,0.39
21.971,-0.21,0.09,0.27,0.35
21.981,-0.35,-0.18,0.20,0.44
21.991,-0.25,-0.29,0.11,0.39
22.001,0.01,-0.24,-0.01,0.24
22.011,0.28,-0.07,-0.01,0.29
22.021,0.48,0.13,0.13,0.52
22.031,0.45,0.17,0.26,0.55
22.041,0.32,0.06,0.29,0.43
22.051,0.20,-0.12,0.24,0.34
22.061,0.12,-0.28,0.08,0.32
22.071,0.16,-0.29,-0.07,0.34
22.081,0.22,-0.19,-0.19,0.35
22.091,0.27,0.04,-0.15,0.31
22.101,0.28,0.23,-0.01,0.36
22.112,0.21,0.35,0.18,0.44
22.122,0.00,0.31,0.29,0.42
22.132,-0.21,0.24,0.37,0.49
22.142,-0.43,0.23,0.49,0.70
22.152,-0.65,0.17,0.52,0.85
22.162,-0.88,-0.04,0.34,0.94
22.172,-0.85,-0.16,0.11,0.87
22.182,-0.61,-0.17,-0.01,0.63
22.192,-0.38,-0.15,-0.06,0.41
22.202,-0.10,-0.11,-0.09,0.17
22.212,0.21,-0.00,-0.06,0.21
22.222,0.47,0.09,0.00,0.48
22.232,0.57,0.18,0.12,0.61
22.242,0.44,0.11,0.21,0.50
22.253,0.25,0.01,0.27,0.37
22.262,0.05,-0.08,0.29,0.31
22.273,-0.03,-0.08,0.29,0.30
22.283,-0.07,-0.08,0.25,0.27
22.293,-0.11,-0.07,0.21,0.25
22.303,-0.10,-0.09,0.17,0.21
22.313,-0.04,-0.11,0.11,0.16
22.323,0.02,-0.13,0.05,0.14
22.333,0.09,-0.19,0.13,0.25
22.343,0.06,-0.23,0.23,0.33
22.353,0.15,-0.02,0.15,0.21
22.363,0.32,0.47,0.18,0.59
22.373,0.09,0.47,0.13,0.50
22.383,-0.17,0.24,0.05,0.30
22.394,-0.25,0.08,0.03,0.26
22.404,-0.34,-0.06,-0.06,0.35
22.414,-0.36,-0.08,-0.11,0.38
22.424,-0.26,-0.05,-0.15,0.30
22.434,-0.15,0.10,-0.14,0.23
22.444,-0.08,0.09,-0.25,0.28
22.454,-0.11,-0.11,-0.41,0.44
22.464,-0.20,-0.43,-0.57,0.74
22.474,-0.18,-0.60,-0.61,0.87
22.484,-0.08,-0.51,-0.46,0.69
22.494,0.18,-0.05,-0.12,0.23
22.504,0.44,0.46,0.23,0.68
22.514,0.38,0.64,0.30,0.80
22.524,-0.04,0.55,0.02,0.55
22.534,-0.67,0.26,-0.18,0.74
22.544,-0.82,0.19,-0.28,0.88
22.554,-0.60,0.30,-0.25,0.71
22.565,-0.20,0.41,-0.05,0.46
22.575,-0.06,0.36,0.18,0.41
22.585,-0.29,0.12,0.25,0.40
22.595,-0.38,-0.05,0.23,0.45
22.605,-0.20,-0.13,0.22,0.33
22.615,-0.08,-0.17,0.25,0.31
22.625,-0.07,-0.19,0.17,0.27
22.635,0.03,-0.16,0.00,0.16
22.645,0.22,-0.19,-0.08,0.30
22.655,0.27,-0.34,-0.25,0.50
22.665,0.17,-0.42,-0.40,0.60
22.675,0.09,-0.42,-0.45,0.62
22.686,-0.06,-0.32,-0.46,0.57
22.696,-0.11,-0.13,-0.48,0.51
22.706,0.05,0.02,-0.52,0.52
22.716,0.13,0.07,-0.55,0.57
22.726,0.21,0.02,-0.51,0.55
22.736,0.22,0.03,-0.32,0.39
22.746,0.21,0.00,-0.13,0.25
22.756,0.32,0.23,0.00,0.40
22.766,0.45,0.81,0.15,0.94
22.776,0.38,0.94,0.33,1.06
22.786,0.23,0.59,0.40,0.75
22.796,-0.20,-0.10,0.32,0.39
22.806,-0.29,-0.53,0.33,0.69
22.816,0.08,-0.41,0.40,0.58
22.826,0.33,-0.22,0.49,0.63
22.837,0.09,-0.19,0.37,0.43
22.847,-0.42,-0.33,0.18,0.56
22.857,-0.50,-0.16,0.02,0.52
22.867,-0.45,0.12,-0.08,0.48
22.877,-0.34,0.34,-0.14,0.50
22.887,-0.33,0.32,-0.21,0.51
22.897,-0.65,-0.07,-0.31,0.73
22.907,-0.46,-0.08,-0.40,0.62
22.917,-0.12,-0.08,-0.35,0.38
22.927,0.20,-0.05,-0.30,0.36
22.937,0.40,-0.01,-0.21,0.45
22.947,0.49,0.01,-0.15,0.51
22.957,0.44,-0.01,-0.09,0.45
22.967,0.52,0.01,-0.00,0.52
22.978,0.28,-0.13,-0.07,0.32
22.988,0.19,-0.40,-0.15,0.47
22.998,0.27,-0.41,-0.17,0.52
23.008,0.43,-0.43,-0.07,0.61
23.018,0.57,-0.42,0.09,0.71
23.028,0.49,-0.31,0.20,0.61
23.038,0.38,-0.15,0.26,0.48
23.048,0.34,0.08,0.30,0.46
23.058,0.53,0.51,0.42,0.84
23.068,0.08,0.42,0.43,0.61
23.078,-0.46,0.43,0.30,0.70
23.088,-0.79,0.43,0.09,0.91
23.098,-0.95,0.40,-0.00,1.03
23.108,-0.93,0.24,-0.04,0.96
23.118,-0.75,0.09,-0.04,0.76
23.128,-0.28,0.09,-0.02,0.30
23.138,-0.28,-0.30,0.02,0.41
23.149,-0.01,-0.31,0.07,0.32
23.159,0.22,-0.37,0.14,0.45
23.169,0.33,-0.36,0.18,0.52
23.179,0.42,-0.25,0.15,0.51
23.189,0.42,-0.10,0.04,0.43
23.199,0.42,0.08,-0.06,0.43
23.209,0.35,0.01,-0.12,0.37
23.219,0.36,-0.02,-0.15,0.39
23.229,0.52,0.12,-0.18,0.57
23.239,-0.46,-0.44,-0.15,0.65
23.249,-0.62,-0.10,-0.15,0.64
23.259,-0.57,0.36,-0.18,0.70
23.269,-0.66,0.67,-0.20,0.96
23.279,-0.75,0.69,-0.12,1.02
23.290,0.55,1.46,0.04,1.56
23.300,-0.47,0.35,0.05,0.58
23.310,-1.50,-1.01,0.05,1.81
23.320,-1.13,-0.86,-0.19,1.43
23.330,-0.44,-0.43,-0.27,0.67
23.340,0.00,-0.04,-0.36,0.37
23.350,0.15,-0.06,-0.39,0.42
23.360,0.20,-0.26,-0.36,0.49
23.370,0.25,-0.39,-0.40,0.61
23.380,0.41,-0.23,-0.47,0.66
23.390,1.82,1.12,-0.26,2.16
23.400,2.35,2.04,-0.02,3.11
23.410,0.12,-0.57,-0.11,0.59
23.421,-1.04,-1.67,-0.12,1.97
23.430,-0.91,-0.79,0.09,1.21
23.441,-0.56,-0.15,0.17,0.60
23.451,-0.32,-0.01,0.05,0.32
23.461,0.00,0.23,-0.00,0.23
23.471,0.13,0.39,-0.02,0.41
23.481,0.12,0.29,-0.11,0.33
23.491,-0.10,-0.36,-0.20,0.42
23.501,-0.16,-0.64,-0.19,0.69
23.511,0.25,0.04,-0.09,0.27
23.521,0.27,0.09,-0.01,0.28
23.531,-0.14,-0.22,-0.01,0.26
23.541,-0.07,-0.24,0.11,0.28
23.551,-0.04,-0.17,0.26,0.31
23.561,0.18,0.29,0.23,0.41
23.571,0.29,0.57,0.15,0.66
23.582,0.27,0.55,0.19,0.64
23.592,0.09,0.38,0.22,0.45
23.602,-0.09,0.21,0.23,0.33
23.612,-0.15,0.09,0.30,0.34
23.622,-0.19,0.09,0.32,0.38
23.632,-0.16,0.16,0.34,0.41
23.642,-0.16,0.13,0.36,0.42
23.652,-0.26,-0.06,0.37,0.46
23.662,-0.34,-0.44,0.40,0.69
23.672,-0.49,-0.58,0.37,0.84
23.682,-0.35,-0.46,0.34,0.67
23.692,-0.20,-0.42,0.29,0.55
23.702,-0.15,-0.41,0.11,0.45
23.713,-0.13,-0.53,-0.08,0.56
23.723,-0.08,-0.36,-0.28,0.46
23.733,0.03,-0.10,-0.33,0.35
23.743,0.07,-0.23,-0.54,0.59
23.753,0.04,-0.23,-0.88,0.91
23.763,0.12,-0.01,-1.08,1.09
23.773,0.09,-0.07,-1.10,1.10
23.783,-0.12,-0.31,-0.93,0.99
23.793,-0.13,-0.44,-0.87,0.98
23.803,0.07,-0.26,-0.71,0.75
23.813,-0.56,-0.81,-0.05,0.99
23.823,-0.66,-0.79,0.24,1.06
23.833,-0.84,-0.99,0.34,1.34
23.843,-0.81,-0.79,0.34,1.19
23.853,-0.61,-0.16,0.33,0.71
23.863,-0.48,0.10,0.26,0.56
23.873,-0.46,0.12,0.14,0.49
23.884,-0.48,0.01,0.11,0.49
23.894,-0.44,-0.01,0.09,0.44
23.904,-0.33,-0.06,-0.05,0.34
23.914,-0.38,-0.07,-0.18,0.42
23.924,-0.33,-0.10,-0.19,0.40
23.934,-0.21,-0.05,-0.08,0.23
23.944,-0.17,-0.02,-0.00,0.17
23.954,-0.14,0.38,0.28,0.49
23.964,-0.11,0.07,0.56,0.58
23.974,-0.13,-0.47,0.58,0.75
23.984,-0.19,-0.59,0.47,0.78
23.994,-0.26,-0.47,0.33,0.63
24.004,-0.26,-0.24,0.15,0.39
24.014,-0.27,-0.09,0.04,0.29
24.025,-0.21,0.17,0.03,0.27
24.035,-0.31,0.25,0.07,0.41
24.045,-0.53,0.06,0.09,0.54
24.055,-0.60,-0.08,0.04,0.60
24.065,-0.61,-0.09,0.01,0.62
24.075,-0.58,0.03,0.11,0.59
24.085,-0.55,0.09,0.31,0.64
24.095,-0.59,-0.06,0.54,0.80
24.105,-0.59,-0.28,0.80,1.04
24.115,-0.58,-0.40,0.97,1.20
24.125,-0.59,-0.44,1.09,1.32
24.135,-0.65,-0.50,0.96,1.27
24.145,-0.60,-0.52,0.68,1.04
24.155,-0.40,-0.41,0.45,0.73
24.166,-0.09,-0.37,0.18,0.42
24.176,0.27,-0.40,-0.06,0.48
24.186,0.64,-0.39,-0.18,0.77
24.196,1.09,-0.17,-0.15,1.11
24.206,1.35,-0.16,-0.23,1.38
24.216,1.59,-0.31,-0.37,1.66
24.226,1.81,-0.25,-0.39,1.87
24.236,1.82,-0.15,-0.40,1.87
24.246,1.75,-0.01,-0.49,1.82
24.256,1.55,-0.00,-0.55,1.64
24.266,1.42,-0.03,-0.63,1.55
24.276,1.20,-0.25,-0.72,1.43
24.286,0.92,-0.40,-0.81,1.29
24.296,0.73,-0.33,-0.85,1.17
24.307,0.54,-0.22,-0.86,1.04
24.316,0.35,-0.02,-0.90,0.96
24.327,-0.01,0.07,-0.88,0.88
24.337,-0.30,0.17,-0.80,0.88
24.347,-0.63,0.16,-0.64,0.91
24.357,-0.93,0.11,-0.48,1.05
24.368,-1.00,0.24,-0.25,1.06
24.377,-0.99,0.35,0.04,1.05
24.387,-0.87,0.38,0.26,0.98
24.397,-0.68,0.26,0.34,0.80
24.407,-0.44,0.33,0.24,0.60
24.418,-0.27,0.48,0.12,0.56
24.427,-0.17,0.47,0.10,0.51
24.437,-0.08,0.22,0.21,0.32
24.448,-0.06,-0.12,0.40,0.42
24.458,0.05,-0.25,0.63,0.68
24.468,0.26,-0.13,0.90,0.95
24.478,0.42,0.05,1.05,1.13
24.488,0.49,0.26,0.98,1.12
24.498,0.36,0.24,0.74,0.85
24.508,0.21,0.09,0.34,0.41
24.518,-0.01,-0.20,-0.05,0.21
24.528,-0.21,-0.47,-0.31,0.60
24.538,-0.31,-0.36,-0.43,0.63
24.548,-0.38,-0.13,-0.46,0.61
24.558,-0.31,0.16,-0.51,0.61
24.568,-0.20,0.49,-0.64,0.83
24.578,-0.20,0.61,-0.77,1.01
24.588,-0.33,0.46,-0.81,0.99
24.599,-0.43,-0.04,-0.70,0.83
24.609,-0.49,-0.70,-0.45,0.96
24.619,-0.28,-1.06,0.04,1.10
24.629,0.26,-0.71,0.62,0.98
24.639,0.58,-0.30,0.90,1.12
24.649,0.44,-0.25,0.78,0.93
24.659,0.24,-0.04,0.52,0.57
24.669,0.18,0.23,0.16,0.33
24.679,-0.03,0.32,-0.26,0.41
24.689,-0.41,-0.08,-0.75,0.86
24.700,-0.70,-0.14,-1.03,1.25
24.709,-0.72,0.44,-1.12,1.40
24.719,-0.39,1.05,-1.00,1.50
24.729,-0.11,1.36,-0.62,1.50
24.739,-0.48,1.14,-0.18,1.25
24.750,-0.90,0.55,0.30,1.09
24.760,-1.01,0.33,0.70,1.27
24.770,-0.79,0.72,0.79,1.33
24.780,-0.51,1.01,0.65,1.31
24.790,-0.39,0.95,0.56,1.17
24.800,-0.74,0.24,0.43,0.89
24.810,-1.18,-0.74,0.52,1.49
24.820,-1.76,-1.21,0.57,2.21
24.830,-1.50,-0.74,0.09,1.67
24.840,-0.52,-0.13,-0.40,0.67
24.850,0.11,-0.16,-0.56,0.60
24.860,0.47,-0.63,-0.41,0.88
24.870,0.06,-1.24,-0.52,1.35
24.880,-0.88,-1.81,-0.54,2.08
24.891,-1.95,-1.38,-1.05,2.61
24.901,-2.78,-0.49,-1.76,3.33
24.911,-2.68,0.24,-2.14,3.44
24.921,-2.09,0.47,-2.36,3.19
24.931,-1.42,0.35,-2.50,2.90
24.941,-0.65,0.50,-2.52,2.65
24.951,0.18,0.69,-2.35,2.45
24.961,0.71,0.39,-1.98,2.14
24.971,1.00,-0.20,-1.38,1.72
24.981,1.15,-0.65,-0.81,1.55
24.991,1.55,-0.39,-0.19,1.62
25.001,1.91,-0.19,0.39,1.96
25.011,2.19,-0.35,0.78,2.35
25.021,2.19,-1.11,1.07,2.68
25.032,2.18,-1.45,1.43,2.98
25.042,2.20,-1.50,1.67,3.14
25.052,2.26,-1.40,1.82,3.22
25.062,2.15,-1.35,1.66,3.03
25.072,1.89,-1.41,1.20,2.64
25.082,1.53,-1.76,0.73,2.44
25.092,1.20,-2.18,0.31,2.51
25.102,1.26,-2.11,0.10,2.46
25.112,1.60,-1.67,0.11,2.32
25.122,2.05,-1.00,0.19,2.29
25.132,2.23,-0.62,0.08,2.32
25.142,2.10,-0.71,-0.09,2.21
25.152,1.92,-0.94,-0.12,2.14
25.162,1.80,-1.08,-0.06,2.10
25.172,1.69,-1.23,0.02,2.09
25.182,1.73,-1.16,0.14,2.08
25.193,1.92,-0.82,0.47,2.14
25.203,2.09,-0.59,0.83,2.33
25.213,2.12,-0.61,1.02,2.43
25.223,2.04,-0.72,0.99,2.38
25.233,2.00,-0.72,0.98,2.34
25.243,1.95,-0.78,1.04,2.34
25.253,1.83,-0.90,1.19,2.36
25.263,1.69,-0.98,1.32,2.36
25.273,1.64,-0.93,1.51,2.42
25.283,1.73,-0.72,1.81,2.60
25.293,1.79,-0.64,2.08,2.82
25.303,1.82,-0.63,2.14,2.88
25.313,1.78,-0.59,1.98,2.73
25.324,1.69,-0.48,1.75,2.47
25.334,1.51,-0.41,1.63,2.26
25.344,1.27,-0.57,1.81,2.29
25.354,1.13,-0.72,2.20,2.57
25.364,1.06,-0.69,2.47,2.78
25.374,1.00,-0.51,2.46,2.70
25.384,0.97,-0.26,2.26,2.48
25.394,0.95,-0.03,1.94,2.16
25.404,0.92,0.08,1.66,1.90
25.414,0.74,-0.01,1.49,1.66
25.424,0.47,-0.00,1.40,1.47
25.434,0.22,0.16,1.40,1.42
25.444,-0.07,0.32,1.50,1.53
25.454,-0.39,0.35,1.54,1.63
25.465,-0.70,0.32,1.44,1.64
25.475,-0.91,0.36,1.20,1.55
25.485,-1.03,0.39,1.00,1.48
25.495,-1.15,0.41,0.95,1.55
25.505,-1.30,0.37,0.94,1.65
25.515,-1.44,0.34,0.83,1.69
25.525,-1.65,0.19,0.61,1.77
25.535,-1.85,0.08,0.36,1.88
25.545,-1.80,0.15,0.22,1.81
25.555,-1.57,0.25,0.13,1.60
25.565,-1.28,0.36,-0.05,1.33
25.575,-1.18,0.30,-0.33,1.26
25.585,-1.41,0.03,-0.58,1.53
25.595,-1.90,-0.39,-0.83,2.10
25.605,-2.44,-0.87,-1.15,2.83
25.616,-2.98,-1.31,-1.39,3.54
25.626,-3.31,-1.51,-1.33,3.87
25.636,-3.37,-1.47,-0.99,3.81
25.646,-3.22,-1.27,-0.57,3.51
25.656,-3.10,-1.21,-0.28,3.34
25.666,-3.13,-1.40,-0.35,3.45
25.676,-3.16,-1.64,-0.96,3.69
25.686,-3.17,-1.75,-1.63,3.97
25.696,-3.05,-1.73,-2.09,4.09
25.706,-2.83,-1.74,-2.27,4.02
25.716,-2.52,-1.77,-2.10,3.73
25.726,-2.01,-1.72,-1.69,3.14
25.736,-0.48,-1.78,-0.91,2.06
25.746,2.81,-2.04,0.28,3.48
25.757,5.78,-2.81,1.07,6.52
25.766,5.67,-3.48,0.70,6.70
25.777,3.09,-3.25,1.92,4.88
25.787,1.38,-4.36,-0.95,4.67
25.797,-1.98,-3.34,-2.52,4.63
25.807,-3.56,-2.29,-2.18,4.76
25.817,-3.14,-1.73,-2.65,4.46
25.827,-2.91,-1.33,-3.03,4.41
25.837,-2.82,-0.90,-2.86,4.11
25.847,-2.53,-0.30,-2.64,3.67
25.857,-1.68,0.37,-2.38,2.94
25.867,-0.65,0.68,-1.82,2.05
25.877,0.05,0.59,-1.03,1.19
25.887,-0.36,0.22,0.20,0.47
25.897,-0.86,0.02,0.03,0.86
25.908,-0.09,-0.42,-0.95,1.05
25.917,0.72,-0.84,-1.21,1.64
25.928,1.16,-1.40,-0.91,2.03
25.938,1.53,-1.93,-0.69,2.56
25.948,1.61,-2.41,-0.70,2.98
25.958,1.64,-2.36,-0.64,2.95
25.968,1.71,-1.84,-0.35,2.54
25.978,1.52,-1.37,-0.24,2.07
25.988,1.04,-1.51,-0.52,1.90
25.998,0.83,-1.44,-0.90,1.89
26.008,0.64,-1.32,-1.14,1.86
26.018,0.32,-1.15,-0.87,1.48
26.028,-0.11,-1.13,-0.16,1.15
26.038,-0.41,-1.27,0.53,1.44
26.048,-0.59,-1.15,1.05,1.67
26.059,-0.60,-0.98,1.19,1.66
26.069,-0.31,-0.96,0.86,1.33
26.079,-0.11,-1.27,0.51,1.37
26.089,0.01,-1.92,0.54,1.99
26.099,0.37,-2.10,1.04,2.37
26.109,0.87,-1.65,1.60,2.46
26.119,1.04,-0.93,1.50,2.05
26.129,0.55,-0.95,0.62,1.26
26.139,0.03,-2.74,-0.19,2.75
26.149,0.55,-2.75,-0.36,2.83
26.159,1.62,-1.29,-0.44,2.12
26.169,1.17,-1.44,-0.94,2.08
26.179,0.08,-1.72,-0.75,1.88
26.189,-0.10,-0.81,-0.48,0.95
26.199,-0.04,-0.19,-0.86,0.88
26.209,-0.06,-0.27,-1.40,1.42
26.220,-0.21,-0.60,-1.55,1.68
26.230,-0.24,-0.66,-1.07,1.28
26.240,-0.08,-0.59,-0.65,0.88
26.250,0.14,-0.50,-0.48,0.71
26.260,0.29,-0.42,-0.24,0.56
26.270,0.31,-0.25,-0.08,0.41
26.280,0.22,0.10,0.13,0.28
26.290,-0.03,0.47,0.24,0.53
26.300,-0.46,0.54,-0.12,0.72
26.310,-0.81,0.51,-0.53,1.09
26.320,-0.66,0.51,-0.69,1.08
26.330,-0.22,0.45,-0.76,0.91
26.341,-0.15,0.42,-0.73,0.86
26.350,-0.30,0.33,-0.49,0.66
26.361,-0.42,0.09,-0.30,0.52
26.371,-0.37,-0.20,-0.34,0.55
26.381,-0.12,-0.41,-0.37,0.56
26.391,0.26,-0.64,-0.45,0.82
26.401,0.40,-0.74,-0.58,1.02
26.411,0.25,-0.66,-0.50,0.86
26.421,0.11,-0.51,-0.42,0.67
26.431,0.05,-0.35,-0.28,0.45
26.441,-0.03,-0.21,-0.12,0.25
26.451,-0.13,-0.13,0.02,0.19
26.461,-0.21,-0.17,0.13,0.30
26.471,-0.29,-0.21,0.17,0.40
26.481,-0.31,-0.15,0.15,0.38
26.492,-0.22,-0.05,0.21,0.31
26.502,-0.21,0.01,0.33,0.39
26.512,-0.17,-0.03,0.41,0.45
26.522,-0.15,-0.16,0.39,0.45
26.532,-0.07,-0.29,0.24,0.38
26.542,-0.02,-0.33,0.14,0.36
26.552,0.04,-0.32,0.10,0.33
26.562,0.09,-0.19,0.06,0.22
26.572,0.12,-0.07,0.04,0.14
26.582,0.09,-0.03,0.03,0.10
26.592,0.00,-0.02,0.01,0.03
26.602,-0.01,-0.01,-0.04,0.04
26.612,0.01,0.01,-0.09,0.09
26.622,0.02,0.04,-0.11,0.12
26.632,0.05,0.03,-0.15,0.16
26.642,0.09,0.01,-0.16,0.18
26.653,0.14,0.01,-0.14,0.20
26.663,0.16,0.02,-0.14,0.21
26.673,0.12,0.00,-0.11,0.17
26.683,0.13,-0.00,-0.10,0.16
26.693,0.22,0.00,-0.22,0.31
26.703,0.34,-0.04,-0.42,0.55
26.713,0.37,-0.19,-0.51,0.66
26.723,0.22,-0.27,-0.33,0.48
26.733,0.23,-0.13,-0.07,0.28
26.744,0.25,0.05,0.13,0.29
26.753,0.26,0.29,0.01,0.39
26.763,-0.11,0.52,-0.39,0.66
26.773,-0.56,0.32,-0.13,0.66
26.783,-0.54,0.15,0.04,0.57
26.793,-0.19,0.19,0.01,0.27
26.804,0.11,0.19,-0.04,0.22
26.814,0.09,0.18,0.05,0.21
