time,ax,ay,az,atotal
0.000,0.78,0.09,-0.59,0.98
0.010,0.84,-0.03,-0.33,0.90
0.020,0.95,0.06,-0.09,0.95
0.030,0.95,0.27,-0.01,0.99
0.040,0.88,0.44,0.08,0.99
0.050,0.85,0.48,0.14,0.99
0.060,0.75,0.43,0.13,0.88
0.070,0.47,0.42,0.05,0.63
0.080,0.27,0.38,-0.07,0.47
0.090,0.20,0.33,-0.22,0.44
0.101,0.19,0.29,-0.28,0.45
0.111,0.28,0.32,-0.19,0.47
0.121,0.32,0.31,-0.05,0.45
0.131,0.29,0.19,0.05,0.35
0.141,0.36,0.10,0.05,0.38
0.151,0.44,0.15,-0.23,0.52
0.161,0.48,0.25,-0.63,0.84
0.171,0.51,0.38,-0.93,1.13
0.181,0.55,0.63,-0.68,1.08
0.191,0.63,0.72,-0.40,1.03
0.201,0.65,0.42,-0.27,0.82
0.211,0.73,0.33,-0.09,0.80
0.221,0.86,0.35,0.01,0.93
0.231,0.70,0.37,0.17,0.81
0.242,1.05,0.08,0.02,1.05
0.252,1.18,-0.11,-0.14,1.20
0.262,0.84,-0.21,-0.23,0.89
0.272,0.81,-0.26,-0.41,0.95
0.282,0.95,-0.23,-0.42,1.07
0.292,1.04,-0.17,-0.24,1.08
0.302,0.51,-0.52,0.50,0.88
0.312,-0.29,-1.48,-1.16,1.91
0.322,-1.88,-1.75,-2.33,3.47
0.332,-2.87,-1.66,-2.71,4.28
0.342,-2.84,-1.50,-3.13,4.49
0.352,-3.04,-1.25,-2.92,4.39
0.362,-3.14,-1.04,-1.95,3.84
0.372,-2.46,-1.04,-1.21,2.93
0.382,-1.99,-1.21,-0.94,2.51
0.392,-2.02,-1.32,-0.67,2.50
0.403,-2.17,-1.62,-0.45,2.75
0.413,-2.47,-1.84,-0.37,3.10
0.423,-2.53,-1.90,-0.45,3.20
0.433,-2.50,-1.89,-0.61,3.20
0.443,-2.30,-1.79,-1.07,3.10
0.453,-1.98,-1.58,-0.88,2.69
0.463,-1.66,-1.40,-0.48,2.22
0.473,-1.39,-1.80,-0.61,2.35
0.483,-1.01,-2.89,-1.04,3.23
0.493,-0.76,-3.83,-1.83,4.31
0.503,-0.96,-4.22,-2.68,5.09
0.513,-1.21,-4.07,-3.04,5.22
0.523,-1.32,-3.87,-3.18,5.18
0.534,-1.23,-3.79,-2.86,4.90
0.544,-1.02,-3.83,-2.26,4.56
0.554,-0.87,-3.96,-1.80,4.44
0.564,-0.99,-4.11,-1.52,4.49
0.574,-1.54,-4.04,-1.45,4.56
0.584,-2.97,-3.87,-1.74,5.18
0.594,-4.79,-3.34,-1.87,6.13
0.604,-4.96,-3.65,-1.60,6.36
0.614,-5.19,-4.42,-1.05,6.90
0.624,-5.76,-4.85,0.09,7.53
0.634,-5.75,-5.06,1.58,7.82
0.644,-5.64,-5.13,2.76,8.11
0.654,-5.33,-5.01,3.64,8.17
0.664,-4.69,-4.86,4.32,8.02
0.675,-3.53,-4.60,4.86,7.56
0.685,-2.11,-4.05,5.52,7.17
0.695,-1.01,-3.50,6.14,7.14
0.705,-0.33,-3.23,6.34,7.13
0.715,-0.13,-2.98,6.23,6.91
0.725,-0.01,-2.69,5.90,6.49
0.735,0.70,-2.19,5.39,5.86
0.745,2.56,-1.39,4.97,5.76
0.755,4.80,-0.26,5.01,6.94
0.765,6.83,0.99,5.55,8.86
0.775,8.15,2.07,6.11,10.40
0.785,8.38,2.51,6.57,10.94
0.795,7.89,2.39,6.98,10.80
0.805,7.71,2.27,6.63,10.42
0.816,9.52,3.26,4.56,11.05
0.827,11.09,5.07,-0.82,12.23
0.837,11.74,5.68,-8.08,15.34
0.846,11.18,4.76,-12.41,17.36
0.856,8.41,4.80,-13.18,16.35
0.866,5.90,4.71,-12.74,14.81
0.876,4.80,3.88,-9.84,11.61
0.886,2.89,2.80,-9.19,10.03
0.896,0.93,2.03,-11.32,11.54
0.906,0.35,1.42,-12.05,12.13
0.916,2.46,1.88,-7.95,8.53
0.926,3.91,2.45,-3.18,5.61
0.936,1.72,1.82,-2.13,3.28
0.946,-0.89,1.40,-2.11,2.68
0.956,-1.27,2.25,-1.16,2.83
0.966,-1.66,3.02,0.30,3.46
0.977,-1.42,1.99,0.75,2.55
0.987,-0.60,3.11,0.17,3.18
0.997,-1.72,3.49,0.02,3.89
1.007,-3.56,2.98,0.65,4.68
1.017,-4.31,2.25,1.93,5.23
1.027,-4.58,1.56,3.38,5.90
1.037,-4.31,1.31,4.72,6.52
1.047,-2.85,1.00,5.78,6.52
1.057,-2.43,0.88,5.91,6.45
1.067,-3.13,-0.03,5.32,6.17
1.077,-4.02,-1.64,4.97,6.60
1.087,-3.40,-3.06,3.83,5.97
1.097,-2.08,-3.73,2.55,4.97
1.107,-0.95,-4.85,1.83,5.27
1.118,-0.38,-6.02,1.40,6.19
1.128,-0.09,-6.49,1.11,6.58
1.138,-0.01,-6.89,1.73,7.10
1.148,0.60,-7.43,2.18,7.77
1.158,1.63,-7.10,1.32,7.40
1.168,2.31,-6.64,-0.01,7.03
1.178,1.59,-5.18,-2.33,5.90
1.188,1.25,-2.53,-4.80,5.56
1.198,0.52,-0.65,-5.26,5.33
1.208,0.15,1.33,-4.08,4.29
1.218,-0.23,3.05,-2.39,3.88
1.228,-2.46,3.86,-1.25,4.75
1.238,-3.45,3.87,-1.49,5.40
1.248,-2.84,3.76,-2.35,5.27
1.259,-2.74,3.07,-2.54,4.84
1.269,-3.05,2.16,-2.22,4.35
1.279,-3.49,1.21,-1.80,4.10
1.289,-3.92,0.45,-1.43,4.20
1.299,-3.88,-0.22,-1.19,4.06
1.309,-2.63,-1.05,-0.86,2.96
1.319,-1.74,-0.86,-0.15,1.95
1.329,-1.49,-0.50,0.46,1.64
1.339,-1.20,-0.06,1.26,1.74
1.349,-0.78,-0.06,2.29,2.42
1.359,-0.43,0.41,3.27,3.32
1.369,-0.40,0.73,2.69,2.82
1.379,-0.60,0.68,1.66,1.89
1.389,-0.53,0.57,2.09,2.23
1.399,-0.59,0.84,2.22,2.45
1.410,-0.43,1.06,1.71,2.06
1.420,-0.10,0.48,1.66,1.73
1.430,0.31,-0.13,1.93,1.96
1.440,0.52,-0.20,1.80,1.88
1.450,0.48,0.19,1.59,1.68
1.460,0.73,0.81,1.14,1.58
1.470,1.10,0.66,0.86,1.54
1.480,1.36,-1.32,1.12,2.20
1.490,1.11,-4.53,1.08,4.79
1.500,0.99,-8.10,0.91,8.21
1.510,1.24,-10.57,-0.27,10.64
1.520,1.62,-8.47,-1.34,8.73
1.530,1.93,-7.38,-1.65,7.81
1.541,1.96,-6.31,-2.33,7.01
1.551,1.87,-4.57,-2.87,5.71
1.561,1.70,-3.15,-2.92,4.62
1.571,1.25,-1.86,-2.81,3.59
1.581,0.55,-0.55,-2.52,2.64
1.591,-0.08,0.40,-2.03,2.08
1.601,-0.88,0.64,-1.57,1.91
1.611,-1.72,0.25,-1.22,2.12
1.621,-2.47,-1.04,-1.02,2.87
1.631,-3.09,-1.88,-0.85,3.72
1.641,-3.27,-1.60,-0.75,3.72
1.651,-3.02,-0.66,-0.84,3.20
1.661,-2.44,0.22,-0.82,2.58
1.671,-1.69,0.85,-0.60,1.99
1.682,-0.95,1.29,-0.17,1.62
1.692,-0.34,1.25,0.38,1.36
1.702,-0.01,0.72,0.97,1.21
1.712,0.14,0.02,1.37,1.38
1.722,0.31,-0.51,1.52,1.63
1.732,0.51,-0.50,1.39,1.56
1.742,0.74,0.06,1.02,1.26
1.752,0.92,0.11,0.74,1.18
1.762,0.84,0.68,0.69,1.28
1.772,0.62,1.71,0.55,1.90
1.782,0.75,1.10,0.32,1.37
1.792,0.88,0.78,0.12,1.18
1.802,0.66,0.66,0.02,0.93
1.812,0.35,0.29,-0.08,0.46
1.822,0.18,-0.11,-0.21,0.30
1.833,0.22,-0.57,-0.29,0.67
1.843,0.06,-0.87,-0.20,0.90
1.853,-0.17,-0.66,-0.21,0.71
1.863,-0.24,-0.47,-0.24,0.58
1.873,-0.32,-0.22,-0.25,0.46
1.883,-0.45,-0.17,-0.12,0.50
1.893,-0.53,-0.37,-0.05,0.65
1.903,-0.54,-0.34,0.03,0.63
1.913,-0.39,-0.18,0.09,0.44
1.923,-0.17,-0.03,0.10,0.20
1.933,0.06,-0.17,0.11,0.21
1.943,0.29,-0.51,0.12,0.59
1.953,0.49,-0.58,0.02,0.76
1.963,0.65,-0.52,-0.11,0.84
1.973,0.86,-0.45,-0.16,0.98
1.984,1.09,-0.31,-0.10,1.14
1.994,1.30,-0.27,0.06,1.33
2.004,1.41,-0.36,0.27,1.47
2.014,1.47,-0.48,0.42,1.60
2.024,1.50,-0.34,0.48,1.61
2.034,1.46,0.15,0.44,1.53
2.044,1.46,0.66,0.30,1.63
2.054,1.42,1.04,0.17,1.77
2.064,1.43,1.16,0.16,1.85
2.074,1.36,0.91,0.07,1.64
2.084,1.32,0.52,-0.11,1.42
2.094,1.35,0.07,-0.17,1.37
2.104,1.36,-0.13,-0.14,1.37
2.114,1.32,-0.01,-0.10,1.32
2.125,1.16,0.39,-0.00,1.23
2.135,0.98,0.67,0.05,1.19
2.145,0.83,0.71,0.01,1.10
2.155,0.76,0.61,-0.01,0.98
2.165,0.78,0.37,-0.04,0.87
2.175,0.75,0.08,-0.06,0.76
2.185,0.62,-0.23,-0.06,0.67
2.195,0.34,-0.52,-0.11,0.63
2.205,0.11,-0.63,-0.16,0.66
2.215,-0.07,-0.60,-0.27,0.66
2.225,-0.28,-0.50,-0.45,0.73
2.235,-0.45,-0.35,-0.63,0.85
2.245,-0.57,-0.25,-0.83,1.03
2.255,-0.65,-0.23,-1.08,1.28
2.266,-0.74,-0.24,-1.36,1.57
2.276,-0.75,-0.34,-1.62,1.82
2.286,-0.83,-0.62,-1.91,2.17
2.296,-0.83,-0.90,-2.22,2.53
2.306,-0.70,-0.93,-2.54,2.80
2.316,-0.45,-0.77,-2.85,2.99
2.326,-0.19,-0.69,-3.27,3.35
2.336,0.03,-0.73,-3.73,3.80
2.346,0.30,-0.57,-4.00,4.06
2.356,0.53,-0.63,-4.10,4.18
2.366,0.31,-0.69,-3.71,3.78
2.376,-0.19,-0.55,-3.11,3.17
2.386,-0.67,-0.22,-2.46,2.56
2.396,-1.05,-0.00,-1.76,2.05
2.407,-1.29,0.07,-1.23,1.79
2.416,-1.51,-0.11,-0.86,1.74
2.427,-1.63,-0.43,-0.57,1.78
2.437,-1.59,-0.79,-0.54,1.85
2.447,-1.54,-1.32,-0.58,2.11
2.457,-1.42,-1.94,-0.51,2.46
2.467,-1.23,-2.60,-0.51,2.92
2.477,-0.83,-3.05,-1.38,3.44
2.487,0.06,-2.53,-1.38,2.88
2.497,1.16,-1.78,-0.66,2.22
2.507,1.56,-1.05,0.40,1.93
2.517,1.62,-0.35,1.60,2.31
2.528,1.57,0.06,2.68,3.10
2.537,1.31,0.37,3.63,3.88
2.548,0.89,0.40,3.92,4.04
2.558,0.96,0.31,3.60,3.73
2.568,1.28,0.14,3.14,3.39
2.578,1.66,-0.12,2.45,2.96
2.588,1.83,-0.56,1.19,2.25
2.598,1.62,-0.91,-0.13,1.87
2.608,0.97,-0.92,-0.40,1.39
2.618,-0.05,-0.36,0.45,0.58
2.628,-0.95,0.42,1.43,1.76
2.638,-1.41,1.06,2.06,2.71
2.648,-1.59,1.51,2.33,3.21
2.658,-1.49,1.81,2.37,3.33
2.669,-1.18,2.02,2.47,3.40
2.678,-0.86,2.16,2.59,3.48
2.689,-0.62,2.24,2.57,3.46
2.698,-0.43,2.25,2.44,3.34
2.709,-0.32,2.24,2.28,3.21
2.719,-0.31,2.24,2.07,3.06
2.729,-0.33,2.29,1.91,3.01
2.739,-0.33,2.28,1.78,2.91
2.749,-0.27,2.24,1.63,2.78
2.759,-0.21,2.19,1.46,2.64
2.769,-0.19,2.15,1.33,2.54
2.779,-0.13,2.16,1.28,2.52
2.789,-0.09,2.22,1.29,2.57
2.799,-0.04,2.24,1.32,2.60
2.809,0.09,2.22,1.25,2.55
2.819,0.28,2.20,0.96,2.42
2.830,0.50,2.17,0.52,2.29
2.840,0.72,2.14,-0.02,2.26
2.850,0.90,2.11,-0.63,2.37
2.860,1.08,2.09,-1.14,2.61
2.870,1.20,2.05,-1.39,2.76
2.880,1.33,1.96,-1.34,2.72
2.890,1.40,1.95,-1.16,2.66
2.900,1.38,1.91,-0.95,2.54
2.910,1.31,1.92,-0.82,2.47
2.920,1.18,2.06,-0.81,2.51
2.930,0.91,2.27,-0.95,2.62
2.940,0.48,2.49,-1.24,2.83
2.950,0.00,2.74,-1.50,3.12
2.960,-0.38,2.79,-1.42,3.15
2.971,-0.38,2.55,-0.72,2.68
2.980,0.08,2.02,-0.42,2.06
2.991,0.55,1.61,-0.87,1.91
3.001,0.97,1.59,-1.66,2.50
3.011,1.30,1.68,-2.28,3.12
3.021,1.29,1.83,-1.88,2.92
3.031,0.68,1.61,-1.12,2.08
3.041,-0.22,1.28,-0.33,1.33
3.051,-1.11,0.89,-0.03,1.43
3.061,-2.31,0.10,-0.66,2.40
3.071,-3.38,-1.43,-1.96,4.16
3.081,-3.85,-3.82,-2.55,6.00
3.091,-3.49,-6.84,-2.06,7.95
3.101,-2.83,-7.79,-0.41,8.30
3.111,-2.01,-6.28,2.05,6.91
3.122,-1.51,-4.59,3.05,5.71
3.131,-1.15,-2.13,1.83,3.03
3.142,-0.85,-0.14,-0.50,1.00
3.152,-0.18,0.96,-1.36,1.68
3.162,0.60,0.66,-1.08,1.40
3.172,1.33,-3.88,-1.56,4.39
3.182,3.68,-9.42,-4.60,11.11
3.192,6.41,-10.12,-5.71,13.27
3.202,4.95,-8.10,-2.69,9.87
3.212,1.62,-7.01,-1.40,7.33
3.222,-1.22,-4.59,0.94,4.84
3.232,-3.60,-1.77,4.41,5.96
3.242,-4.43,-0.60,7.00,8.30
3.252,-4.27,-0.17,8.28,9.32
3.262,-3.18,-0.90,7.33,8.04
3.273,-1.80,-1.62,6.20,6.66
3.283,-0.54,-1.57,5.57,5.81
3.293,0.16,-1.01,4.67,4.78
3.303,0.31,-0.26,3.99,4.01
3.313,0.34,0.37,3.38,3.42
3.323,0.48,1.03,2.74,2.96
3.333,0.90,1.74,2.09,2.87
3.343,1.43,2.33,1.05,2.93
3.353,2.03,2.54,-0.82,3.36
3.363,2.43,1.89,-3.74,4.84
3.373,2.13,0.55,-6.68,7.03
3.383,1.39,-0.25,-8.25,8.37
3.393,0.66,0.36,-7.01,7.05
3.403,0.30,1.10,-3.50,3.68
3.414,0.18,1.14,-1.88,2.21
3.423,-0.01,1.05,-1.06,1.49
3.434,-0.50,0.80,-0.54,1.09
3.444,-0.18,0.73,-1.19,1.41
3.454,0.73,0.98,-2.24,2.56
3.464,1.47,1.27,-3.09,3.65
3.474,2.07,1.73,-2.95,4.00
3.484,2.21,2.05,-2.01,3.62
3.494,2.00,2.11,-0.94,3.06
3.504,1.63,2.03,-0.39,2.63
3.514,1.05,1.87,-0.36,2.17
3.524,0.76,1.92,-0.40,2.10
3.534,0.52,2.06,-0.75,2.25
3.544,0.26,2.25,-1.27,2.60
3.554,0.03,2.61,-2.13,3.37
3.564,-0.37,2.97,-2.35,3.80
3.575,-0.92,3.24,-1.16,3.56
3.585,-1.28,3.56,0.04,3.79
3.595,-1.32,3.89,0.79,4.19
3.605,-1.33,4.20,1.20,4.56
3.615,-1.19,4.27,1.69,4.75
3.625,-0.72,4.18,2.06,4.72
3.635,0.05,3.62,2.20,4.23
3.645,0.86,2.62,2.00,3.41
3.655,1.70,1.26,1.10,2.38
3.665,2.83,-0.39,-0.87,2.98
3.675,4.19,-2.38,-3.90,6.20
3.685,5.33,-4.82,-7.21,10.18
3.695,5.43,-7.20,-9.16,12.85
3.705,3.65,-8.25,-7.70,11.86
3.716,1.26,-7.92,-4.08,9.00
3.726,-0.02,-7.22,-1.67,7.41
3.736,-1.04,-6.75,0.75,6.87
3.746,-2.20,-6.65,2.96,7.60
3.756,-1.61,-6.53,1.65,6.93
3.766,-1.35,-6.13,0.99,6.35
3.776,-3.09,-5.80,1.75,6.80
3.786,-4.13,-4.52,1.39,6.28
3.796,-3.69,-2.59,1.43,4.73
3.806,-3.12,-1.00,1.99,3.84
3.816,-2.98,0.01,2.91,4.17
3.826,-2.62,0.52,3.47,4.38
3.836,-1.78,0.88,3.36,3.90
3.846,-0.82,1.14,3.06,3.36
3.857,-0.01,1.35,2.73,3.04
3.866,0.31,1.48,2.67,3.07
3.877,0.28,1.16,2.69,2.94
3.887,-0.41,0.60,2.34,2.45
3.897,-1.29,0.07,1.69,2.12
3.907,-1.95,-0.28,1.19,2.30
3.917,-2.56,-0.33,0.92,2.75
3.927,-3.16,-0.01,0.99,3.31
3.937,-3.67,0.62,1.33,3.96
3.947,-4.02,1.35,1.93,4.66
3.957,-4.15,2.07,2.50,5.27
3.967,-4.03,2.79,2.81,5.65
3.977,-3.73,3.57,2.88,5.91
3.987,-3.30,4.25,2.75,6.04
3.998,-2.76,4.70,2.47,5.98
4.008,-2.11,4.93,2.18,5.79
4.018,-1.38,4.95,1.99,5.51
4.028,-0.63,4.70,1.79,5.07
4.038,0.10,4.24,1.55,4.51
4.048,0.81,3.58,1.39,3.92
4.058,1.52,2.77,1.23,3.39
4.068,2.22,1.94,0.95,3.09
4.078,2.85,1.21,0.45,3.13
4.088,3.40,0.62,-0.41,3.48
4.098,3.71,0.15,-1.42,3.98
4.108,3.70,-0.13,-2.25,4.33
4.118,3.33,-0.23,-2.82,4.37
4.128,2.66,-0.38,-3.31,4.27
4.139,1.78,-0.40,-3.70,4.12
4.148,0.80,-0.26,-4.01,4.10
4.159,-0.05,-0.01,-4.21,4.21
4.169,-0.66,0.34,-4.31,4.37
4.179,-0.95,0.70,-4.19,4.36
4.189,-1.00,0.95,-4.03,4.26
4.199,-0.93,0.87,-4.02,4.22
4.209,-0.96,0.32,-4.16,4.28
4.219,-1.19,-0.85,-4.20,4.45
4.229,-1.47,-2.38,-3.99,4.87
4.239,-1.60,-3.79,-3.14,5.17
4.249,-1.69,-4.53,-1.84,5.18
4.259,-2.12,-4.70,-0.89,5.23
4.269,-2.59,-4.04,0.09,4.80
4.280,-2.62,-2.57,1.65,4.03
4.289,-2.56,-0.62,2.64,3.73
4.300,-2.19,1.64,2.64,3.80
4.310,-1.53,3.40,2.46,4.47
4.320,-0.59,4.34,2.48,5.03
4.330,0.30,3.25,2.54,4.14
4.340,0.23,-0.33,2.73,2.76
4.350,0.89,-5.43,2.20,5.93
4.360,4.40,-12.77,-2.69,13.77
4.370,6.18,-14.85,-7.11,17.58
4.380,6.44,-13.37,-9.33,17.53
4.390,5.87,-9.54,-7.36,13.40
4.400,2.91,-5.55,-2.10,6.61
4.410,0.47,-3.59,1.20,3.82
4.421,0.39,-2.37,2.21,3.26
4.431,-0.13,-0.82,3.08,3.19
4.441,-0.58,0.44,4.32,4.38
4.451,-0.85,1.20,5.07,5.28
4.461,-1.12,1.80,5.76,6.14
4.471,-1.37,2.35,6.69,7.22
4.481,-1.72,2.47,7.35,7.94
4.491,-1.72,2.14,7.48,7.97
4.501,-1.36,1.81,7.19,7.54
4.511,-1.10,1.57,6.59,6.86
4.521,-0.78,1.18,5.54,5.72
4.531,-0.15,0.74,4.10,4.16
4.541,0.43,0.43,3.11,3.17
4.551,0.56,0.07,2.51,2.57
4.562,0.33,-0.05,2.14,2.17
4.572,-0.09,0.03,2.06,2.06
4.582,-0.44,0.14,2.08,2.13
4.592,-0.62,0.31,1.38,1.55
4.602,-0.69,0.15,-1.12,1.32
4.612,-0.57,-0.52,-9.66,9.69
4.622,0.28,-1.11,-21.83,21.86
4.632,1.41,-0.73,-17.54,17.62
4.642,1.34,-0.19,-6.66,6.79
4.652,0.46,0.05,-1.11,1.20
4.662,-0.20,0.51,1.19,1.31
4.672,-0.45,1.42,2.99,3.34
4.682,0.08,2.29,2.92,3.71
4.692,0.95,3.02,2.18,3.84
4.702,1.59,3.48,1.85,4.25
4.712,1.79,3.57,1.69,4.34
4.723,1.63,3.48,1.55,4.14
4.732,1.36,3.43,1.32,3.92
4.743,1.15,3.47,1.10,3.82
4.753,1.17,3.68,0.85,3.95
4.763,1.38,3.77,0.34,4.03
4.773,1.73,3.28,-0.90,3.82
4.783,2.23,2.34,-2.17,3.89
4.793,2.55,1.67,-2.52,3.96
4.803,2.56,1.19,-2.20,3.58
4.813,2.29,0.70,-2.10,3.19
4.823,2.25,0.11,-3.28,3.98
4.833,2.75,-0.83,-6.81,7.39
4.844,3.43,-1.81,-10.05,10.78
4.853,3.36,-2.56,-10.19,11.03
4.864,2.41,-3.35,-8.94,9.84
4.874,0.74,-3.93,-7.09,8.14
4.884,-1.25,-3.90,-3.71,5.53
4.894,-2.34,-3.38,0.06,4.11
4.904,-1.82,-3.46,1.78,4.30
4.914,-1.46,-5.01,2.82,5.93
4.924,-1.80,-8.07,4.04,9.20
4.934,-1.85,-12.10,4.72,13.12
4.944,-2.03,-15.21,4.45,15.98
4.954,-2.59,-14.51,3.48,15.14
4.964,-3.46,-9.13,2.69,10.13
4.974,-3.10,-3.77,2.03,5.29
4.984,-2.36,-0.20,1.80,2.98
4.994,-2.02,2.29,2.01,3.65
5.005,-1.64,3.80,2.17,4.67
5.015,-0.86,4.67,3.04,5.64
5.025,-0.22,4.95,3.95,6.34
5.035,-0.09,4.68,4.33,6.37
5.045,-0.61,3.67,3.89,5.38
5.055,-1.03,2.27,3.02,3.91
5.065,-1.43,0.73,2.54,3.00
5.075,-1.98,-0.36,2.52,3.23
5.085,-2.24,-0.50,2.68,3.53
5.095,-2.51,0.18,3.00,3.91
5.105,-2.87,1.36,3.40,4.65
5.115,-3.13,2.61,3.75,5.54
5.125,-3.38,3.78,4.07,6.51
5.135,-3.54,4.77,4.21,7.29
5.145,-3.37,5.58,4.30,7.81
5.156,-2.90,6.26,4.38,8.17
5.166,-2.26,6.68,4.32,8.27
5.176,-1.54,6.76,4.02,8.01
5.186,-1.01,6.37,3.68,7.42
5.196,-0.45,5.63,3.27,6.53
5.206,0.02,4.57,2.77,5.34
5.216,0.55,3.33,1.94,3.89
5.226,1.30,1.80,0.61,2.31
5.236,1.98,-0.15,-0.81,2.14
5.246,2.55,-2.03,-2.07,3.86
5.256,2.86,-3.24,-4.03,5.91
5.266,2.99,-3.55,-6.94,8.35
5.276,2.93,-3.07,-9.02,9.97
5.287,2.54,-1.98,-9.05,9.61
5.296,2.16,-0.80,-8.98,9.27
5.307,2.11,0.05,-9.21,9.45
5.317,1.70,-0.05,-8.90,9.07
5.327,0.45,-1.23,-8.64,8.74
5.337,-0.79,-2.67,-8.66,9.10
5.347,-1.55,-3.12,-5.38,6.41
5.357,-2.45,-3.11,-1.46,4.22
5.367,-2.58,-2.73,1.50,4.04
5.377,-2.40,-2.22,2.88,4.36
5.387,-2.13,-1.40,3.56,4.38
5.397,-1.59,-0.71,3.94,4.31
5.407,-1.10,-0.67,4.40,4.58
5.417,-0.98,-1.97,4.75,5.24
5.428,-0.92,-4.77,4.95,6.93
5.438,-0.98,-8.05,5.33,9.70
5.448,-1.00,-10.97,5.62,12.37
5.458,1.26,-13.10,5.35,14.21
5.468,3.60,-10.12,-0.97,10.79
5.478,3.61,-5.20,-5.73,8.54
5.488,2.76,-2.62,-6.19,7.27
5.498,1.38,-1.67,-2.91,3.63
5.508,-0.61,-1.50,0.31,1.65
5.518,-2.51,-1.68,2.07,3.66
5.528,-3.06,-1.74,2.28,4.20
5.538,-2.60,-1.00,2.19,3.55
5.548,-2.24,0.00,2.16,3.11
5.558,-2.04,0.67,2.50,3.29
5.569,-1.57,0.97,2.86,3.40
5.578,-0.56,1.30,3.05,3.36
5.589,0.39,1.44,3.28,3.60
5.599,1.19,1.62,3.43,3.97
5.609,1.79,1.84,3.15,4.06
5.619,2.31,1.95,2.32,3.82
5.629,2.57,1.82,1.39,3.44
5.639,2.44,1.52,0.47,2.91
5.649,2.07,1.26,-0.46,2.46
5.659,1.60,1.08,-1.47,2.43
5.669,1.08,1.04,-2.47,2.89
5.679,0.66,1.18,-3.06,3.35
5.689,0.45,1.55,-3.04,3.44
5.699,0.22,1.89,-2.70,3.30
5.710,0.04,2.19,-2.32,3.20
5.719,0.12,2.35,-2.34,3.32
5.730,0.53,2.33,-2.82,3.69
5.740,0.95,2.25,-3.36,4.16
5.750,1.23,2.24,-3.28,4.16
5.760,1.05,2.31,-2.35,3.46
5.770,0.70,2.36,-1.08,2.69
5.780,0.56,2.44,-0.18,2.51
5.790,0.63,2.50,0.27,2.60
5.800,0.73,2.66,0.64,2.83
5.810,0.75,2.74,0.84,2.96
5.820,0.82,2.63,0.82,2.87
5.830,0.86,2.31,0.95,2.65
5.840,0.87,1.91,1.05,2.35
5.851,0.78,1.54,0.91,1.95
5.860,0.62,1.12,-0.02,1.28
5.871,0.71,0.75,-1.24,1.61
5.881,0.95,0.71,-1.97,2.30
5.891,1.17,0.91,-1.74,2.28
5.901,1.61,0.94,-1.89,2.65
5.911,2.40,0.61,-3.52,4.30
5.921,3.28,-0.12,-5.46,6.37
5.931,3.99,-1.23,-6.41,7.65
5.941,4.01,-2.27,-5.32,7.04
5.951,3.55,-3.33,-3.56,6.03
5.961,3.21,-4.86,-2.22,6.23
5.971,3.18,-7.35,-0.92,8.06
5.981,3.10,-10.46,0.75,10.93
5.992,2.58,-13.33,2.48,13.80
6.002,1.27,-14.75,3.58,15.23
6.012,-1.17,-13.41,4.21,14.11
6.022,-3.48,-9.66,4.09,11.05
6.032,-4.85,-5.48,4.11,8.40
6.042,-5.30,-1.93,3.93,6.87
6.052,-5.29,1.10,3.54,6.46
6.062,-4.82,3.43,3.33,6.79
6.072,-4.46,5.14,3.14,7.49
6.082,-4.27,6.25,2.46,7.96
6.092,-3.80,6.39,1.79,7.65
6.102,-2.62,4.80,1.76,5.75
6.112,-1.81,2.20,1.58,3.26
6.122,-1.23,0.11,1.11,1.66
6.132,-0.83,-1.33,0.87,1.79
6.142,-0.76,-1.87,1.06,2.28
6.153,-1.06,-1.08,1.25,1.97
6.162,-1.64,0.84,1.19,2.19
6.173,-2.36,2.47,1.11,3.59
6.183,-3.01,3.59,1.22,4.84
6.193,-3.43,4.32,1.57,5.73
6.203,-3.56,4.71,2.09,6.26
6.213,-3.43,4.77,2.61,6.43
6.223,-3.04,4.57,3.01,6.26
6.233,-2.41,4.31,3.23,5.90
6.243,-1.73,4.09,3.20,5.47
6.253,-1.02,3.80,2.97,4.93
6.263,-0.31,3.47,2.55,4.32
6.273,0.39,3.11,2.06,3.75
6.283,1.18,2.81,1.43,3.37
6.294,1.96,2.56,0.69,3.29
6.304,2.53,2.29,-0.02,3.41
6.314,2.82,1.76,-0.82,3.43
6.324,2.86,1.00,-1.68,3.46
6.334,2.72,0.08,-2.40,3.63
6.344,2.61,-0.76,-3.09,4.11
6.354,2.51,-1.10,-3.52,4.46
6.364,2.41,-1.07,-3.84,4.65
6.374,2.24,-0.69,-4.23,4.84
6.384,1.79,-0.01,-4.31,4.67
6.394,0.98,0.43,-4.20,4.34
6.404,0.16,0.55,-4.34,4.38
6.414,-0.68,0.16,-4.67,4.72
6.424,-1.62,-0.87,-5.35,5.66
6.435,-2.46,-2.14,-5.81,6.66
6.445,-2.85,-3.07,-5.05,6.56
6.455,-2.83,-3.57,-3.77,5.91
6.465,-2.76,-4.13,-2.54,5.58
6.475,-2.21,-4.46,-0.90,5.06
6.485,-1.83,-4.36,1.12,4.85
6.495,-1.54,-3.67,2.47,4.68
6.505,-1.14,-2.45,2.89,3.95
6.515,-0.58,-1.00,3.11,3.32
6.525,-0.01,0.18,3.50,3.50
6.535,0.66,0.62,3.74,3.85
6.545,0.83,-0.59,3.58,3.72
6.555,0.71,-3.07,3.16,4.47
6.565,0.81,-5.71,3.23,6.61
6.576,1.21,-9.07,4.64,10.25
6.586,2.21,-11.37,3.59,12.12
6.596,2.86,-10.33,0.15,10.72
6.606,3.38,-7.39,-2.51,8.51
6.616,2.70,-3.89,-4.89,6.80
6.626,1.52,-1.32,-4.93,5.32
6.636,0.59,-0.02,-2.86,2.92
6.646,-0.41,0.77,-0.92,1.27
6.656,-0.61,1.74,0.25,1.86
6.666,-0.32,2.54,0.89,2.71
6.676,-0.42,3.13,1.41,3.47
6.686,-0.79,3.47,2.02,4.09
6.696,-1.11,3.19,2.29,4.08
6.706,-1.01,2.49,2.34,3.56
6.716,-0.66,1.81,2.55,3.20
6.726,-0.19,1.25,2.82,3.09
6.737,0.32,0.78,3.13,3.24
6.747,0.85,0.46,3.25,3.40
6.757,1.31,0.25,3.03,3.31
6.767,1.58,0.36,2.64,3.09
6.777,1.52,0.81,2.21,2.80
6.787,1.02,1.27,1.66,2.33
6.797,0.49,1.40,0.75,1.67
6.807,-0.08,1.42,-1.34,1.95
6.817,-0.70,1.19,-5.22,5.40
6.827,-1.04,0.93,-9.10,9.21
6.837,-0.74,1.15,-10.04,10.14
6.847,-0.19,1.60,-8.51,8.66
6.858,0.05,2.17,-6.16,6.53
6.867,-0.18,2.64,-3.32,4.24
6.878,-0.29,2.82,-1.02,3.01
6.888,0.19,2.71,-0.06,2.72
6.898,0.60,2.61,0.49,2.72
6.908,0.98,2.72,0.99,3.05
6.918,1.39,2.89,1.31,3.46
6.928,1.73,3.14,1.48,3.88
6.938,2.21,3.31,1.16,4.15
6.948,2.84,3.16,0.56,4.28
6.958,3.31,2.64,0.15,4.24
6.968,3.43,2.20,0.43,4.10
6.978,3.28,1.81,0.89,3.85
6.988,2.94,1.30,1.08,3.39
6.998,2.80,0.57,0.36,2.88
7.008,3.20,-0.78,-2.64,4.22
7.018,3.80,-2.41,-7.62,8.85
7.029,4.03,-3.51,-10.73,11.99
7.039,3.78,-4.21,-10.92,12.30
7.049,2.72,-4.54,-8.65,10.14
7.059,1.31,-4.31,-4.63,6.46
7.069,0.22,-3.78,-1.07,3.93
7.079,-0.29,-3.79,1.50,4.09
7.089,-0.14,-5.44,3.74,6.60
7.099,0.30,-8.61,5.43,10.18
7.109,0.15,-11.98,5.69,13.26
7.120,-0.92,-14.32,4.60,15.07
7.129,-3.37,-13.65,3.12,14.40
7.140,-5.89,-9.80,2.70,11.75
7.149,-6.14,-4.64,2.49,8.09
7.160,-5.10,-0.26,1.91,5.45
7.170,-3.97,2.66,2.50,5.40
7.180,-3.28,4.58,3.23,6.50
7.190,-2.56,5.65,3.38,7.07
7.200,-1.42,5.58,2.97,6.48
7.210,-0.49,3.91,2.67,4.76
7.220,0.07,1.73,2.50,3.04
7.230,0.30,-0.33,2.34,2.39
7.240,0.39,-2.01,2.09,2.92
7.250,-0.03,-2.68,1.79,3.22
7.260,-0.91,-1.95,1.35,2.54
7.270,-2.04,-0.35,1.00,2.30
7.280,-3.06,1.25,1.34,3.57
7.290,-3.93,2.56,1.93,5.07
7.300,-4.46,3.59,2.48,6.24
7.311,-4.65,4.35,2.91,7.00
7.321,-4.49,4.84,3.22,7.34
7.331,-3.98,5.04,3.44,7.29
7.341,-3.22,5.05,3.63,7.01
7.351,-2.49,4.92,3.79,6.69
7.361,-1.85,4.72,3.86,6.37
7.371,-1.24,4.35,3.83,5.93
7.381,-0.81,3.79,3.61,5.30
7.391,-0.50,3.17,3.32,4.62
7.401,-0.27,2.67,2.84,3.90
7.411,0.15,2.30,2.22,3.20
7.421,0.75,1.84,1.42,2.44
7.431,1.45,1.31,0.47,2.01
7.442,2.31,0.64,-0.98,2.59
7.451,3.58,-0.28,-3.85,5.26
7.462,5.22,-1.05,-8.28,9.85
7.472,6.22,-1.31,-10.64,12.39
7.482,5.62,-0.85,-9.89,11.41
7.492,4.10,-0.24,-8.46,9.40
7.502,1.89,-0.01,-7.66,7.89
7.512,-0.02,0.30,-7.25,7.25
7.522,-1.31,0.66,-6.47,6.64
7.532,-2.51,0.80,-5.38,5.99
7.542,-3.31,0.58,-4.33,5.48
7.552,-3.90,-0.36,-3.66,5.36
7.562,-4.16,-2.20,-2.85,5.50
7.572,-3.91,-4.45,-1.82,6.20
7.583,-3.00,-6.02,-0.55,6.75
7.592,-1.71,-6.47,0.61,6.72
7.603,-0.60,-5.51,1.80,5.83
7.613,0.39,-3.44,2.93,4.53
7.623,1.22,-1.90,3.72,4.35
7.633,1.87,-1.98,4.65,5.39
7.643,2.81,-4.31,5.46,7.50
7.653,4.78,-7.37,4.60,9.92
7.663,4.39,-7.35,2.30,8.86
7.673,3.40,-6.50,1.21,7.44
7.683,2.63,-6.17,1.23,6.82
7.693,2.02,-5.59,1.75,6.20
7.703,1.43,-4.06,2.13,4.80
7.713,1.12,-2.35,1.67,3.09
7.724,1.09,-1.49,1.04,2.12
7.733,0.54,-0.78,0.84,1.27
7.744,-0.09,-0.20,0.74,0.78
7.754,-0.64,0.11,0.62,0.90
7.764,-1.10,0.25,0.58,1.27
7.774,-1.43,0.39,0.63,1.61
7.784,-1.51,0.77,0.73,1.85
7.794,-1.54,1.26,0.73,2.12
7.804,-1.66,1.76,0.57,2.48
7.814,-1.85,2.22,0.23,2.90
7.824,-2.02,2.57,-0.29,3.29
7.834,-2.07,2.83,-0.93,3.63
7.844,-2.07,2.80,-1.38,3.75
7.854,-2.00,2.62,-1.55,3.64
7.865,-1.78,2.30,-1.52,3.28
7.875,-1.27,1.66,-1.46,2.55
7.885,-0.62,1.20,-1.51,2.02
7.895,-0.10,1.38,-1.88,2.34
7.905,0.40,1.87,-2.51,3.16
7.915,0.92,2.40,-3.02,3.97
7.925,1.32,2.78,-3.07,4.35
7.935,1.48,3.12,-2.81,4.45
7.945,1.47,3.48,-2.66,4.62
7.955,1.52,3.81,-2.83,4.98
7.965,1.53,4.03,-2.62,5.04
7.975,1.32,4.10,-1.64,4.61
7.985,1.06,3.95,-0.54,4.13
7.995,1.05,3.68,0.17,3.83
8.006,1.45,3.56,-0.05,3.84
8.016,2.51,3.44,-2.70,5.04
8.026,3.76,2.56,-7.64,8.89
8.036,3.85,1.61,-7.97,9.00
8.046,2.72,1.46,-3.04,4.33
8.056,1.60,1.05,-0.96,2.14
8.066,1.04,0.17,-2.59,2.79
8.076,1.00,-0.89,-5.62,5.78
8.086,1.15,-1.66,-7.33,7.60
8.096,1.45,-2.28,-6.52,7.05
8.106,1.42,-2.76,-3.33,4.55
8.116,1.14,-2.77,1.24,3.24
8.126,0.89,-2.77,4.42,5.29
8.136,0.79,-4.22,4.81,6.45
8.146,0.60,-8.45,3.93,9.34
8.156,0.09,-13.96,2.65,14.21
8.167,-1.15,-17.70,0.83,17.76
8.177,-4.14,-16.34,0.42,16.86
8.187,-6.30,-9.80,1.00,11.69
8.197,-6.07,-2.82,0.58,6.72
8.207,-5.94,1.84,-0.37,6.23
8.217,-5.66,4.98,-0.87,7.59
8.227,-4.75,6.80,-0.25,8.30
8.237,-3.55,7.50,0.96,8.35
8.247,-2.51,6.93,2.32,7.73
8.257,-1.61,5.01,3.62,6.38
8.267,-0.82,2.25,4.40,5.01
8.277,-0.65,-0.36,3.98,4.05
8.287,-0.98,-2.17,2.41,3.39
8.297,-1.59,-3.02,0.37,3.44
8.308,-2.64,-2.54,-0.78,3.74
8.317,-3.21,-0.69,-0.45,3.31
8.328,-3.17,1.64,0.37,3.59
8.338,-3.22,3.69,1.06,5.01
8.348,-3.18,5.06,1.66,6.21
8.358,-2.77,5.67,2.08,6.65
8.368,-2.07,5.77,2.36,6.57
8.378,-1.35,5.45,2.44,6.12
8.388,-0.66,4.84,2.47,5.48
8.398,-0.10,4.14,2.31,4.74
8.408,0.40,3.51,1.96,4.04
8.418,0.92,2.78,1.71,3.39
8.428,1.67,1.90,1.43,2.90
8.438,2.29,1.24,0.60,2.67
8.449,3.14,0.86,-1.12,3.44
8.459,5.01,0.28,-4.02,6.43
8.469,7.52,-0.54,-6.60,10.02
8.479,9.05,-1.86,-7.83,12.11
8.489,9.53,-3.16,-8.23,12.98
8.499,9.24,-4.09,-9.37,13.79
8.509,8.53,-3.91,-14.18,17.00
8.519,6.63,-3.57,-21.24,22.53
8.529,2.09,-3.88,-21.32,21.77
8.539,-2.06,-3.73,-12.97,13.65
8.549,-4.79,-2.98,-6.39,8.53
8.559,-5.40,-1.31,0.73,5.60
8.569,-4.34,-0.53,3.77,5.77
8.579,-4.69,-1.01,2.58,5.45
8.590,-4.83,-2.46,3.63,6.52
8.600,-4.69,-5.06,5.62,8.90
8.610,-5.12,-8.21,7.23,12.08
8.620,-5.85,-10.98,8.58,15.12
8.630,-6.01,-12.02,9.26,16.32
8.640,-4.91,-10.79,8.97,14.87
8.650,-3.19,-7.54,7.88,11.37
8.660,-1.87,-4.08,6.66,8.03
8.670,-0.95,-1.26,5.60,5.82
8.680,-0.62,0.55,5.01,5.07
8.690,-1.22,0.99,4.47,4.74
8.700,-2.30,0.20,3.66,4.33
8.710,-3.02,-1.43,3.23,4.64
8.720,-3.38,-2.90,2.95,5.34
8.731,-3.09,-3.49,2.99,5.54
8.741,-2.24,-3.05,2.93,4.79
8.751,-1.70,-2.28,2.83,4.01
8.761,-1.51,-1.53,2.55,3.33
8.771,-1.22,-0.76,2.12,2.56
8.781,-0.90,-0.03,1.67,1.90
8.791,-0.70,0.72,1.18,1.55
8.801,-0.54,1.38,0.65,1.62
8.811,-0.54,1.92,0.27,2.01
8.821,-0.65,2.27,0.09,2.37
8.831,-0.71,2.30,-0.08,2.41
8.841,-0.88,2.13,-0.25,2.32
8.851,-1.05,1.71,-0.37,2.04
8.861,-0.98,1.14,-0.54,1.60
8.872,-0.59,0.62,-0.72,1.12
8.882,-0.01,0.30,-0.79,0.85
8.892,0.59,0.13,-0.74,0.95
8.902,1.15,0.06,-0.54,1.27
8.912,1.80,0.16,-0.49,1.88
8.922,2.44,0.41,-0.79,2.60
8.932,2.95,0.61,-1.24,3.26
8.942,3.39,0.75,-1.66,3.85
8.952,3.69,0.80,-2.01,4.28
8.962,4.01,0.65,-2.37,4.70
8.972,4.36,0.15,-2.83,5.20
8.982,4.72,-0.50,-3.31,5.79
8.992,5.08,-1.00,-3.85,6.45
9.002,5.44,-1.29,-4.58,7.23
9.013,6.16,-1.56,-6.02,8.75
9.023,7.78,-2.26,-8.97,12.09
9.033,8.79,-3.09,-10.44,14.00
9.043,8.35,-3.58,-9.84,13.40
9.053,7.05,-2.59,-10.51,12.92
9.063,5.41,-0.75,-11.87,13.07
9.073,4.20,-0.26,-11.60,12.34
9.083,2.75,-2.22,-10.05,10.65
9.093,0.72,-4.80,-7.77,9.16
9.103,-1.31,-5.92,-4.50,7.55
9.113,-3.46,-6.29,-0.96,7.25
9.123,-5.01,-6.73,2.09,8.65
9.134,-5.48,-7.52,4.23,10.22
9.143,-5.54,-8.65,5.29,11.55
9.154,-6.48,-10.06,6.39,13.57
9.164,-7.39,-10.76,7.06,14.84
9.174,-7.15,-10.18,5.07,13.43
9.184,-6.37,-8.92,1.66,11.08
9.194,-6.50,-7.07,-0.81,9.64
9.204,-5.25,-3.70,-2.29,6.82
9.214,-3.23,-0.46,-1.89,3.77
9.224,-2.48,1.30,0.24,2.81
9.234,-2.21,2.57,2.83,4.41
9.244,-2.39,3.68,4.56,6.33
9.254,-3.16,4.29,5.19,7.44
9.264,-3.82,4.78,4.75,7.75
9.274,-3.79,5.16,3.81,7.45
9.284,-3.64,5.27,3.47,7.29
9.294,-3.44,5.12,3.72,7.20
9.304,-2.87,4.96,4.00,6.99
9.315,-2.19,4.90,3.94,6.66
9.325,-2.09,4.71,3.69,6.33
9.335,-2.38,4.36,3.57,6.12
9.345,-2.96,4.13,3.51,6.17
9.355,-3.54,3.95,3.52,6.37
9.365,-3.74,3.98,3.59,6.53
9.375,-3.51,3.97,3.68,6.45
9.385,-3.15,3.89,3.84,6.31
9.395,-2.83,3.77,3.98,6.17
9.405,-2.51,3.66,3.91,5.92
9.415,-2.20,3.52,3.69,5.55
9.425,-1.92,3.32,3.32,5.07
9.435,-1.60,3.01,2.75,4.38
9.445,-1.26,2.52,1.97,3.43
9.456,-0.77,1.89,0.92,2.24
9.466,0.07,1.09,-0.35,1.15
9.476,1.31,0.16,-1.88,2.30
9.486,2.96,-0.87,-3.68,4.80
9.496,5.14,-2.37,-5.68,8.02
9.506,7.88,-5.08,-9.49,13.34
9.516,9.25,-8.83,-11.90,17.47
9.526,8.78,-10.80,-9.23,16.70
9.536,9.31,-11.10,-12.82,19.35
9.546,9.10,-10.17,-17.05,21.84
9.556,5.78,-8.21,-13.61,16.92
9.566,1.61,-4.21,-8.70,9.80
9.576,-2.15,-0.68,-5.94,6.36
9.586,-4.56,-0.98,-3.63,5.91
9.596,-5.87,-2.48,-1.06,6.46
9.607,-6.18,-3.01,0.73,6.91
9.617,-5.55,-2.84,2.46,6.70
9.627,-4.20,-2.36,3.87,6.18
9.637,-4.37,-1.98,4.08,6.30
9.647,-4.77,-0.93,3.35,5.91
9.657,-4.54,0.68,3.02,5.49
9.667,-3.83,2.32,3.36,5.60
9.677,-2.96,3.98,3.50,6.07
9.687,-2.25,5.15,3.57,6.66
9.697,-1.95,5.31,3.57,6.69
9.707,-1.92,4.27,3.61,5.91
9.717,-2.43,2.39,3.90,5.17
9.727,-3.01,0.41,4.15,5.14
9.738,-3.18,-1.46,4.18,5.45
9.747,-3.25,-2.81,4.41,6.16
9.758,-3.08,-3.62,4.38,6.46
9.768,-2.83,-3.73,3.98,6.15
9.778,-2.40,-2.97,3.54,5.21
9.788,-1.93,-1.85,3.14,4.12
9.798,-1.52,-0.96,2.72,3.26
9.808,-1.16,-0.35,2.36,2.65
9.818,-0.83,0.09,2.10,2.26
9.828,-0.54,0.44,1.86,1.98
9.838,-0.31,0.76,1.48,1.69
9.848,-0.12,1.01,1.04,1.46
9.858,0.12,1.25,0.77,1.48
9.868,0.37,1.33,0.73,1.56
9.879,0.67,1.16,0.78,1.55
9.889,1.05,0.79,0.78,1.53
9.899,1.61,0.26,0.41,1.68
9.909,2.17,-0.24,-0.25,2.19
9.919,2.60,-0.56,-0.84,2.79
9.929,2.82,-0.70,-1.22,3.15
9.939,2.82,-0.61,-1.47,3.24
9.949,2.55,-0.34,-1.59,3.02
9.959,2.18,-0.02,-1.65,2.73
9.969,1.87,0.26,-1.76,2.58
9.979,1.58,0.38,-1.98,2.56
9.989,1.37,0.36,-2.25,2.65
9.999,1.14,0.16,-2.52,2.77
10.009,0.91,0.07,-2.73,2.88
10.020,0.76,0.02,-2.88,2.98
10.030,0.82,0.11,-2.92,3.04
10.040,1.06,0.21,-2.86,3.06
10.049,1.40,0.22,-2.73,3.07
10.060,1.69,0.12,-2.60,3.10
10.070,1.96,-0.05,-2.60,3.26
10.080,2.08,-0.18,-2.67,3.38
10.090,1.97,-0.33,-2.80,3.44
10.100,1.71,-0.54,-2.78,3.31
10.110,1.35,-0.61,-2.70,3.08
10.120,1.06,-0.56,-2.70,2.95
10.130,1.00,-0.60,-2.66,2.91
10.140,1.19,-0.96,-2.53,2.96
10.150,1.53,-1.69,-2.30,3.24
10.161,1.92,-2.56,-1.96,3.75
10.170,2.22,-3.50,-1.68,4.47
10.181,2.45,-4.44,-1.75,5.37
10.191,2.60,-5.28,-2.42,6.36
10.201,2.58,-5.73,-4.62,7.79
10.211,1.95,-5.45,-9.01,10.71
10.221,0.43,-4.51,-11.77,12.61
10.231,-1.04,-3.23,-10.12,10.67
10.241,-2.25,-1.86,-7.16,7.74
10.251,-3.21,-0.80,-3.97,5.17
10.261,-4.34,-0.10,-1.18,4.49
10.271,-5.35,0.13,1.25,5.49
10.281,-5.92,0.14,3.31,6.78
10.291,-5.79,0.07,4.46,7.31
10.301,-5.33,-0.44,5.05,7.36
10.311,-5.31,-1.56,5.75,7.98
10.322,-4.95,-2.63,6.23,8.38
10.332,-4.44,-3.61,5.91,8.22
10.342,-4.54,-4.35,5.87,8.60
10.352,-4.75,-4.55,5.72,8.71
10.362,-4.14,-3.53,4.26,6.91
10.372,-2.43,-1.46,-0.15,2.84
10.382,-0.80,0.37,-3.81,3.91
10.392,0.04,1.57,-3.48,3.82
10.402,0.15,2.03,-1.27,2.40
10.412,-0.60,2.20,1.01,2.50
10.422,-1.75,2.56,2.32,3.87
10.432,-2.49,2.84,2.66,4.62
10.442,-2.73,3.12,2.71,4.95
10.452,-2.62,3.12,2.85,4.97
10.463,-2.60,2.85,3.34,5.11
10.473,-2.67,2.57,4.22,5.62
10.483,-2.85,2.46,4.23,5.66
10.493,-3.49,2.44,3.50,5.51
10.503,-4.12,2.57,2.69,5.55
10.513,-4.44,2.78,2.01,5.61
10.523,-4.50,2.98,1.76,5.68
10.533,-4.33,3.10,2.00,5.69
10.543,-3.81,2.97,2.44,5.41
10.553,-3.16,2.62,2.76,4.94
10.563,-2.44,2.27,2.85,4.39
10.573,-1.59,2.15,2.78,3.85
10.583,-0.71,2.12,2.46,3.32
10.593,0.14,1.94,1.99,2.78
10.604,0.74,1.66,1.49,2.35
10.613,1.16,1.51,0.97,2.13
10.624,1.47,1.44,0.45,2.11
10.634,1.75,1.51,-0.05,2.31
10.644,1.97,1.67,-0.53,2.64
10.654,2.30,1.98,-1.06,3.22
10.664,2.61,2.40,-1.58,3.88
10.674,2.87,2.84,-2.15,4.57
10.684,2.97,3.15,-2.64,5.07
10.694,2.89,3.10,-2.97,5.17
10.704,2.48,2.49,-3.15,4.72
10.714,1.74,1.60,-3.12,3.91
10.724,1.03,1.02,-2.84,3.19
10.734,0.24,0.96,-2.75,2.92
10.745,-0.69,1.34,-3.05,3.40
10.755,-1.69,1.81,-3.61,4.38
10.765,-2.53,2.02,-4.10,5.23
10.775,-2.94,1.91,-4.32,5.56
10.785,-2.92,1.65,-4.10,5.30
10.795,-2.51,1.27,-3.48,4.48
10.805,-1.91,0.96,-2.87,3.58
10.815,-1.17,0.79,-2.52,2.89
10.825,-0.33,0.42,-2.12,2.19
10.835,0.39,-0.77,-1.75,1.95
10.845,1.24,-2.76,-1.22,3.26
10.855,1.89,-4.39,-0.34,4.79
10.865,1.70,-5.74,0.38,6.00
10.875,0.74,-4.87,1.72,5.21
10.885,-0.24,-2.74,2.77,3.90
10.895,-0.71,0.02,3.14,3.22
10.906,-0.38,2.02,3.37,3.95
10.916,-0.16,1.36,3.39,3.66
10.926,-0.38,-3.72,3.23,4.94
10.936,0.92,-10.25,2.05,10.49
10.946,2.59,-14.26,-1.65,14.58
10.956,3.57,-16.34,-6.39,17.91
10.966,3.45,-14.70,-11.57,19.02
10.976,0.71,-8.35,-12.76,15.26
10.986,-0.82,-5.21,-5.23,7.42
10.996,-2.42,-3.34,2.14,4.65
11.006,-2.47,-1.92,3.27,4.52
11.016,-1.83,-0.51,3.05,3.60
11.026,-1.55,0.81,4.17,4.53
11.036,-1.52,1.42,4.60,5.04
11.047,-1.21,1.75,5.23,5.64
11.057,-1.13,1.68,5.77,6.12
11.067,-1.41,1.24,6.26,6.54
11.077,-1.43,1.01,6.70,6.93
11.087,-0.99,1.20,6.57,6.76
11.097,-0.24,1.44,6.85,7.01
11.107,0.22,1.82,5.84,6.13
11.117,0.50,2.14,3.89,4.46
11.127,0.89,2.33,2.58,3.58
11.137,0.93,2.29,1.86,3.10
11.147,0.70,2.18,1.40,2.68
11.157,0.37,2.04,1.13,2.36
11.167,-0.10,1.69,0.37,1.73
11.178,-0.78,1.12,-2.21,2.59
11.188,-1.10,0.62,-5.06,5.22
11.198,-0.51,0.38,-6.64,6.67
11.208,0.84,0.69,-6.87,6.96
11.218,2.05,0.99,-6.45,6.84
11.228,2.52,1.08,-6.34,6.90
11.238,2.37,1.24,-6.78,7.29
11.248,1.59,1.76,-5.38,5.88
11.258,0.40,2.34,-2.66,3.57
11.268,-0.09,2.73,-0.88,2.87
11.278,-0.03,3.18,0.11,3.18
11.288,0.08,3.46,0.62,3.52
11.298,0.05,3.64,1.05,3.79
11.309,0.22,3.69,1.50,3.99
11.318,0.30,3.54,1.44,3.84
11.329,0.77,2.99,-0.55,3.14
11.339,1.56,1.89,-4.36,5.01
11.349,1.19,1.99,-3.73,4.39
11.359,0.63,2.73,-0.03,2.80
11.369,0.43,3.01,1.57,3.42
11.379,0.30,2.94,1.53,3.32
11.389,0.27,2.66,0.75,2.77
11.399,0.85,2.14,-1.40,2.69
11.409,2.51,1.01,-6.69,7.21
11.419,4.07,-0.54,-11.29,12.01
11.429,3.72,-1.54,-9.23,10.07
11.439,2.22,-1.64,-3.88,4.76
11.450,0.86,-1.48,0.02,1.72
11.459,-0.21,-1.53,1.89,2.44
11.470,-1.05,-2.73,2.95,4.15
11.479,-1.43,-5.45,3.37,6.57
11.490,-1.56,-9.19,3.01,9.80
11.500,-1.55,-13.63,2.77,13.99
11.510,-1.53,-17.58,3.11,17.92
11.520,-1.16,-19.62,3.32,19.94
11.530,-0.82,-15.70,2.78,15.96
11.540,-1.35,-7.61,0.86,7.78
11.550,-2.00,-2.41,-0.17,3.14
11.560,-2.46,0.99,-0.52,2.70
11.570,-2.97,3.36,-0.25,4.49
11.580,-3.39,4.94,0.41,6.01
11.590,-3.45,5.86,1.30,6.92
11.600,-3.08,6.25,2.22,7.32
11.611,-2.65,6.14,2.81,7.25
11.621,-2.56,5.62,3.07,6.90
11.631,-3.09,4.50,3.05,6.25
11.641,-3.76,3.28,2.84,5.74
11.651,-4.05,2.54,2.62,5.45
11.661,-3.78,2.35,2.48,5.09
11.671,-3.31,2.44,2.37,4.74
11.681,-2.89,2.73,2.17,4.52
11.691,-2.48,3.16,2.00,4.49
11.701,-2.06,3.60,2.06,4.63
11.711,-1.54,3.98,2.29,4.84
11.721,-0.73,4.08,2.35,4.76
11.731,-0.05,4.31,2.02,4.76
11.741,0.43,4.60,1.44,4.84
11.752,0.80,5.03,0.42,5.11
11.762,1.46,5.45,-1.40,5.82
11.772,2.98,5.06,-3.49,6.83
11.782,4.37,3.88,-3.62,6.87
11.792,4.90,2.77,-2.75,6.27
11.802,5.06,2.04,-2.46,5.98
11.812,5.29,1.49,-2.82,6.18
11.822,5.10,1.26,-4.05,6.63
11.832,4.12,0.45,-6.55,7.75
11.842,2.80,-1.32,-8.26,8.82
11.852,1.63,-3.20,-7.11,7.97
11.862,0.02,-4.28,-4.26,6.04
11.872,-1.98,-4.44,-0.38,4.87
11.882,-3.44,-4.27,2.27,5.93
11.893,-4.66,-4.66,3.41,7.42
11.902,-5.42,-4.33,4.18,8.10
11.913,-4.88,-3.00,4.27,7.14
11.923,-2.99,-1.85,4.34,5.58
11.933,-1.69,-2.28,4.22,5.08
11.943,-1.69,-6.95,2.40,7.54
11.953,2.75,-17.59,-9.22,20.05
11.963,6.29,-20.60,-15.94,26.80
11.973,5.06,-14.23,-13.92,20.54
11.983,0.31,-8.05,-5.50,9.75
11.993,-2.46,-4.17,5.17,7.08
12.003,-3.52,-1.55,6.80,7.81
12.013,-2.58,-0.05,5.13,5.74
12.023,-1.89,1.17,4.99,5.46
12.034,-2.32,1.53,5.72,6.36
12.043,-3.32,0.35,6.16,7.01
12.054,-3.97,-1.28,6.76,7.94
12.064,-3.87,-2.03,7.02,8.27
12.074,-2.88,-1.64,6.67,7.45
12.084,-1.23,-0.63,5.99,6.14
12.094,0.09,0.20,4.87,4.87
12.104,0.89,0.78,3.59,3.78
12.114,1.52,1.55,2.67,3.44
12.124,1.86,2.35,2.13,3.67
12.134,2.00,3.32,2.09,4.40
12.144,2.31,4.02,0.38,4.65
12.154,3.09,3.52,-5.98,7.60
12.164,3.79,2.52,-11.91,12.75
12.175,3.89,2.18,-12.67,13.43
12.184,3.29,2.53,-10.67,11.45
12.195,2.01,2.97,-7.48,8.29
12.205,0.19,2.89,-4.10,5.02
12.215,-1.13,2.58,-1.26,3.09
12.225,-1.42,2.47,0.07,2.84
12.235,-0.54,2.57,0.66,2.71
12.245,0.41,2.85,0.89,3.01
12.255,0.92,3.12,0.95,3.39
12.265,1.28,3.22,1.01,3.61
12.275,1.82,3.32,1.03,3.92
12.285,2.32,3.39,0.29,4.12
12.295,2.72,3.41,-0.61,4.40
12.305,2.90,3.33,-0.66,4.46
12.315,2.65,3.05,-0.21,4.05
12.326,2.05,2.57,-0.18,3.29
12.336,1.67,1.92,-1.06,2.76
12.346,1.90,1.01,-3.07,3.75
12.356,2.46,-0.21,-6.64,7.08
12.366,2.91,-1.34,-9.32,9.85
12.376,3.26,-2.08,-9.19,9.97
12.386,3.46,-2.40,-7.43,8.54
12.396,2.77,-2.33,-4.04,5.42
12.406,1.79,-2.69,-0.67,3.30
12.416,1.42,-5.06,0.63,5.29
12.426,1.49,-9.20,1.80,9.49
12.436,1.63,-12.96,3.86,13.62
12.447,1.25,-16.83,5.28,17.68
12.457,-0.67,-19.30,6.44,20.36
12.467,-3.15,-17.81,6.83,19.33
12.477,-4.13,-11.97,6.34,14.16
12.486,-4.43,-5.01,3.47,7.54
12.497,-5.32,-0.01,0.65,5.36
12.507,-5.49,3.60,-0.85,6.62
12.517,-5.11,5.61,-0.54,7.61
12.527,-3.81,6.58,0.02,7.60
12.537,-1.75,6.25,1.23,6.61
12.547,-0.41,4.14,2.62,4.92
12.557,0.07,1.48,3.27,3.59
12.567,-0.07,-0.53,3.23,3.27
12.577,-0.84,-1.37,2.53,3.00
12.587,-2.07,-0.79,1.79,2.84
12.597,-2.69,0.50,1.57,3.15
12.607,-2.88,1.84,1.66,3.80
12.618,-3.21,2.93,1.88,4.74
12.628,-3.71,3.77,2.14,5.71
12.638,-4.09,4.33,2.42,6.43
12.648,-4.14,4.64,2.76,6.80
12.658,-3.83,4.75,3.12,6.86
12.668,-3.25,4.80,3.46,6.75
12.678,-2.67,4.81,3.71,6.64
12.688,-2.13,4.83,3.81,6.51
12.698,-1.76,4.88,3.60,6.31
12.708,-1.62,5.03,3.05,6.10
12.718,-1.65,5.24,2.13,5.89
12.728,-1.41,5.06,0.86,5.32
12.739,-0.62,4.00,-0.38,4.07
12.748,0.40,2.59,-1.50,3.02
12.759,1.52,1.29,-2.87,3.49
12.769,2.86,0.16,-4.56,5.39
12.779,3.97,-0.70,-5.54,6.85
12.789,4.64,-1.33,-5.35,7.20
12.799,4.90,-1.78,-4.87,7.14
12.809,4.61,-2.11,-5.03,7.14
12.819,3.91,-2.76,-6.08,7.74
12.829,3.10,-4.25,-7.73,9.35
12.839,1.92,-5.25,-8.54,10.21
12.849,0.64,-4.58,-6.00,7.58
12.859,-1.07,-2.99,-1.89,3.70
12.869,-3.35,-1.58,0.24,3.71
12.879,-4.37,-0.33,1.60,4.66
12.889,-4.16,0.54,2.23,4.75
12.900,-3.43,1.09,2.35,4.30
12.910,-2.76,1.33,2.50,3.96
12.920,-2.49,0.31,2.84,3.79
12.930,-2.49,-2.41,2.77,4.43
12.940,-2.36,-6.12,2.55,7.03
12.950,-2.14,-11.96,3.03,12.52
12.960,0.44,-20.64,-0.79,20.66
12.970,2.04,-19.60,-11.31,22.72
12.980,1.33,-12.09,-13.98,18.53
12.990,0.24,-7.19,-4.96,8.74
13.000,-1.50,-4.46,2.69,5.42
13.010,-2.10,-2.53,4.26,5.38
13.020,-1.20,-0.68,3.93,4.16
13.030,-0.62,0.99,4.21,4.37
13.041,-0.72,2.11,4.96,5.43
13.051,-1.02,2.65,5.51,6.20
13.061,-1.42,2.45,6.22,6.83
13.071,-1.56,1.82,6.48,6.90
13.081,-1.27,1.27,6.45,6.69
13.091,-0.81,0.95,6.13,6.26
13.101,-0.46,0.49,5.51,5.55
13.111,-0.03,0.44,4.92,4.94
13.121,0.45,0.60,4.29,4.36
13.131,0.74,0.73,3.44,3.60
13.141,0.98,0.85,2.59,2.90
13.151,1.03,0.89,1.98,2.40
13.161,0.91,1.04,1.52,2.06
13.171,0.70,1.26,1.16,1.85
13.182,0.53,1.57,0.91,1.89
13.192,0.41,2.10,1.10,2.41
13.202,0.20,2.61,0.18,2.62
13.212,0.59,2.30,-3.68,4.37
13.222,2.09,1.91,-6.58,7.17
13.232,3.73,1.87,-7.55,8.62
13.242,4.57,1.91,-7.39,8.90
13.252,4.78,1.85,-7.60,9.17
13.262,4.40,1.77,-7.79,9.12
13.272,3.23,1.79,-5.89,6.95
13.282,1.85,2.18,-3.07,4.19
13.292,1.33,2.63,-1.29,3.22
13.302,1.35,3.21,-0.00,3.48
13.312,1.54,3.88,0.67,4.23
13.322,1.71,4.50,0.79,4.88
13.332,2.04,5.05,0.02,5.45
13.343,2.12,5.26,-0.51,5.69
13.353,1.64,4.72,-0.70,5.05
13.363,1.06,3.91,-0.77,4.13
13.373,0.99,3.13,-0.57,3.34
13.383,1.14,2.35,-0.51,2.66
13.393,0.96,1.31,-1.65,2.32
13.403,0.90,-0.22,-4.93,5.01
13.413,1.55,-1.70,-8.20,8.52
13.423,2.90,-2.51,-7.29,8.24
13.433,3.99,-3.28,-5.86,7.81
13.443,4.25,-4.57,-6.34,8.89
13.453,4.17,-6.17,-6.36,9.80
13.464,3.70,-6.87,-4.27,8.90
13.473,3.14,-6.95,-0.57,7.64
13.484,2.60,-7.46,2.74,8.36
13.494,2.26,-8.83,5.22,10.50
13.504,2.30,-11.06,6.68,13.13
13.514,1.44,-12.61,7.06,14.52
13.524,-0.74,-12.45,6.48,14.05
13.534,-3.24,-11.48,5.69,13.22
13.544,-5.57,-9.82,4.93,12.32
13.554,-6.84,-6.12,3.43,9.80
13.564,-6.72,-1.67,1.55,7.10
13.574,-6.32,1.85,0.33,6.60
13.584,-5.49,4.10,0.29,6.86
13.594,-3.91,5.29,1.08,6.67
13.604,-2.24,5.60,1.89,6.32
13.614,-1.34,4.57,2.81,5.53
13.625,-1.53,2.56,3.17,4.35
13.635,-1.63,0.64,2.85,3.34
13.645,-1.29,-0.83,2.36,2.81
13.655,-0.88,-1.48,1.81,2.51
13.665,-0.66,-1.06,1.39,1.87
13.675,-2.00,0.18,1.10,2.29
13.685,-3.61,1.42,1.27,4.08
13.695,-4.45,2.50,1.78,5.41
13.705,-4.70,3.33,2.27,6.19
13.715,-4.56,3.96,2.60,6.57
13.725,-4.20,4.27,2.68,6.56
13.735,-3.73,4.29,2.72,6.30
13.745,-3.26,4.04,2.84,5.92
13.755,-2.63,3.71,3.11,5.51
13.765,-1.76,3.31,3.48,5.11
13.776,-0.93,2.83,3.49,4.59
13.786,-0.30,2.41,3.13,3.96
13.796,0.17,2.12,2.56,3.33
13.806,0.71,1.90,1.98,2.84
13.816,1.36,1.83,1.52,2.74
13.826,2.05,1.93,0.99,2.99
13.836,2.76,2.14,0.22,3.50
13.846,3.38,2.09,-1.04,4.11
13.856,4.19,1.32,-2.88,5.25
13.866,4.98,-0.04,-5.21,7.20
13.876,5.13,-1.19,-6.72,8.53
13.886,4.66,-1.52,-6.79,8.38
13.896,3.99,-1.33,-6.15,7.45
13.907,3.36,-0.78,-5.43,6.43
13.917,2.82,-0.15,-5.07,5.80
13.927,2.18,0.08,-4.93,5.39
13.937,0.90,-0.15,-4.69,4.77
13.947,-0.92,-0.71,-4.08,4.24
13.957,-2.27,-1.19,-3.44,4.29
13.967,-2.77,-1.07,-2.48,3.87
13.977,-3.62,-0.71,-1.26,3.90
13.987,-3.89,-0.25,0.73,3.96
13.997,-3.17,0.15,1.94,3.72
14.007,-2.00,0.79,2.02,2.95
14.017,-1.06,1.87,1.90,2.87
14.028,-0.39,2.55,1.89,3.20
14.037,-0.36,1.70,2.07,2.70
14.047,-0.83,-1.34,2.49,2.94
14.058,-1.17,-5.89,2.92,6.68
14.068,0.06,-14.67,3.41,15.06
14.078,3.34,-20.59,-2.42,20.99
14.088,5.14,-15.93,-9.28,19.14
14.098,5.43,-8.89,-12.25,16.08
14.108,3.03,-4.01,-7.83,9.30
14.118,-0.41,-2.37,0.04,2.40
14.128,-2.32,-1.60,3.52,4.51
14.138,-1.88,-1.41,2.90,3.73
14.148,-1.70,-1.45,2.99,3.74
14.158,-2.00,-1.61,3.95,4.71
14.168,-2.21,-1.70,4.81,5.56
14.178,-2.30,-1.53,5.28,5.95
14.189,-2.07,-1.02,5.52,5.99
14.199,-1.32,-0.29,5.59,5.75
14.209,-0.39,0.66,5.28,5.33
14.219,0.11,1.45,4.81,5.02
14.229,0.62,2.34,4.17,4.82
14.239,1.10,3.14,3.45,4.79
14.249,1.33,3.87,2.87,5.00
14.259,1.41,4.47,2.41,5.27
14.269,1.31,4.79,2.07,5.38
14.279,0.96,4.63,1.73,5.04
14.289,0.60,4.14,1.53,4.45
14.299,0.25,3.49,1.63,3.86
14.309,-0.10,2.88,1.64,3.32
14.319,-0.24,2.33,0.44,2.38
14.330,-0.14,1.76,-2.51,3.07
14.340,0.37,1.05,-8.16,8.24
14.350,1.60,0.48,-13.91,14.01
14.360,2.88,0.60,-13.55,13.86
14.370,3.04,1.04,-9.51,10.04
14.380,2.23,1.33,-6.87,7.35
14.390,1.39,1.77,-4.63,5.15
14.400,0.75,2.40,-1.96,3.19
14.410,0.21,2.79,-0.15,2.81
14.420,0.37,3.10,0.69,3.20
14.430,0.76,3.56,1.12,3.81
14.440,1.12,3.92,1.24,4.26
14.450,1.72,3.96,1.07,4.45
14.460,3.14,3.59,-1.36,4.96
14.470,6.31,1.96,-11.38,13.15
14.480,8.30,0.27,-16.43,18.41
14.491,6.34,0.08,-8.30,10.44
14.501,3.89,-0.37,-3.44,5.21
14.511,1.82,-1.31,-2.72,3.53
14.521,0.05,-1.83,-1.30,2.24
14.531,-1.29,-1.67,1.81,2.78
14.541,-1.59,-1.53,4.90,5.38
14.551,-0.52,-2.92,6.10,6.79
14.561,1.20,-7.45,6.02,9.65
14.571,2.34,-14.22,5.21,15.33
14.581,2.96,-21.20,2.19,21.52
14.592,2.48,-24.61,-1.07,24.76
14.602,-0.77,-20.39,-0.66,20.42
14.611,-5.05,-10.91,1.11,12.07
14.621,-7.39,-3.80,2.40,8.65
14.632,-7.92,1.04,2.59,8.40
14.642,-7.52,4.84,1.34,9.04
14.652,-6.63,7.30,0.64,9.88
14.662,-4.68,8.61,1.27,9.89
14.672,-2.89,8.81,2.31,9.56
14.682,-1.61,8.05,3.55,8.94
14.692,-1.07,6.52,4.54,8.02
14.702,-1.33,4.73,5.14,7.11
14.712,-1.81,2.64,5.67,6.51
14.722,-2.00,0.59,6.20,6.54
14.732,-2.50,0.37,4.27,4.96
14.742,-2.32,1.36,4.21,5.00
14.752,-2.62,3.00,3.96,5.62
14.762,-2.95,3.95,3.90,6.28
14.773,-3.01,4.25,3.83,6.47
14.783,-2.36,4.45,3.84,6.33
14.793,-1.58,4.65,3.60,6.09
14.803,-0.94,4.75,2.89,5.64
14.813,-0.45,4.71,1.95,5.12
14.823,-0.02,4.32,-0.79,4.39
14.833,2.08,2.17,-10.11,10.55
14.843,4.45,0.19,-14.31,14.99
14.853,4.15,-0.56,-8.45,9.43
14.863,3.68,-0.72,-5.57,6.72
14.873,3.64,-0.60,-6.00,7.05
14.883,3.51,-0.63,-8.07,8.82
14.893,1.62,-1.68,-10.20,10.46
14.903,-0.74,-1.26,-1.53,2.12
14.913,-2.12,-0.59,3.47,4.11
14.924,-2.86,-0.88,3.36,4.50
14.934,-3.56,-1.61,2.89,4.86
14.944,-4.12,-3.33,2.63,5.92
14.954,-4.38,-6.77,3.03,8.62
14.964,-4.64,-11.71,3.12,12.98
14.974,-3.82,-18.78,2.10,19.28
14.984,4.54,-21.03,-15.28,26.39
14.994,9.55,-10.50,-31.82,34.84
15.004,3.66,-5.55,-12.36,14.03
15.014,0.73,-5.05,5.57,7.55
15.024,-0.89,-2.94,8.11,8.67
15.034,-0.93,-1.58,6.65,6.90
15.044,-0.51,-0.41,6.12,6.16
15.054,-0.81,-0.25,6.15,6.21
15.064,-1.20,-0.23,6.08,6.20
15.075,-1.59,0.20,6.54,6.74
15.085,-1.78,0.78,6.98,7.25
15.095,-2.07,0.98,7.54,7.88
15.105,-2.04,1.14,8.02,8.36
15.115,-1.01,1.90,7.70,7.99
15.125,0.48,2.46,6.66,7.12
15.135,1.53,2.72,5.08,5.96
15.145,1.96,2.90,3.58,5.01
15.155,2.06,2.95,2.59,4.43
15.165,2.12,3.20,2.00,4.33
15.175,2.19,3.53,1.63,4.46
15.185,2.06,3.92,1.45,4.66
15.195,1.33,3.64,-2.20,4.45
15.205,-0.10,2.21,-14.64,14.81
15.216,0.21,1.20,-20.68,20.71
15.226,2.52,0.98,-11.75,12.05
15.236,3.03,0.99,-6.53,7.27
15.246,2.07,1.76,-4.56,5.31
15.256,1.34,3.18,-2.59,4.32
15.266,1.74,3.89,-0.97,4.37
15.276,2.96,4.64,-1.06,5.60
15.286,6.17,5.28,-5.39,9.75
15.296,8.66,4.98,-9.12,13.53
15.306,7.53,4.14,-4.45,9.68
15.316,6.28,3.69,-1.18,7.38
15.326,5.60,2.68,-0.44,6.22
15.337,4.08,-0.29,-0.71,4.15
15.347,2.44,-4.21,-1.28,5.03
15.357,1.71,-6.68,-0.32,6.90
15.367,1.65,-7.87,1.55,8.19
15.377,1.92,-9.90,2.67,10.43
15.387,0.79,-14.03,3.89,14.58
15.397,-1.01,-18.13,4.80,18.78
15.407,-3.91,-18.32,3.35,19.03
15.417,-7.46,-13.42,0.95,15.38
15.427,-8.32,-7.76,-0.59,11.39
15.437,-7.17,-4.08,-1.35,8.36
15.447,-5.08,-0.77,-1.16,5.27
15.457,-3.09,2.33,-0.57,3.91
15.467,-1.75,4.19,0.74,4.60
15.478,-0.65,5.46,1.99,5.85
15.487,0.09,5.20,2.51,5.78
15.498,0.69,4.32,2.97,5.28
15.508,0.61,3.86,3.72,5.39
15.518,-0.05,3.58,4.60,5.83
15.528,-0.92,3.35,5.05,6.13
15.538,-1.75,3.25,4.99,6.20
15.548,-2.38,3.39,4.27,5.95
15.558,-2.61,3.89,3.36,5.76
15.568,-2.40,4.68,2.72,5.92
15.578,-2.01,5.46,2.53,6.34
15.588,-1.46,5.71,2.53,6.41
15.598,-1.08,5.64,2.56,6.29
15.608,-0.70,5.51,2.61,6.13
15.618,-0.37,5.24,2.46,5.80
15.628,-0.12,4.85,2.26,5.35
15.638,0.17,4.56,2.14,5.05
15.648,0.39,3.95,1.89,4.40
15.659,0.57,2.94,0.97,3.15
15.669,1.54,0.45,-5.45,5.68
15.679,3.44,-5.12,-21.44,22.31
15.689,2.74,-8.34,-23.70,25.27
15.699,1.77,-7.55,-16.92,18.62
15.709,0.78,-5.73,-12.25,13.55
15.719,-1.43,-5.22,-13.53,14.58
15.729,-5.01,-4.57,-13.83,15.40
15.739,-5.33,-2.57,-6.78,9.00
15.749,-3.02,-0.50,3.17,4.41
15.759,-3.66,-0.41,4.05,5.48
15.769,-4.47,-1.04,4.97,6.76
15.780,-4.33,-2.56,7.30,8.86
15.790,-4.42,-4.77,8.37,10.60
15.800,-4.41,-8.81,8.55,13.04
15.810,-3.71,-10.30,9.18,14.29
15.820,-3.04,-10.40,9.56,14.45
15.830,-1.42,-9.86,7.75,12.62
15.840,-0.25,-8.27,5.30,9.83
15.850,0.06,-6.18,4.38,7.57
15.860,0.14,-4.82,4.47,6.57
15.870,0.06,-3.73,4.70,6.00
15.880,0.19,-2.67,4.81,5.51
15.890,-0.14,-1.13,5.01,5.14
15.900,-0.99,-0.67,3.62,3.81
15.910,-1.22,-0.78,1.93,2.41
15.921,-0.69,-0.35,1.36,1.56
15.931,0.13,0.29,1.38,1.41
15.941,0.84,0.87,1.23,1.73
15.951,1.37,1.29,0.89,2.08
15.961,1.84,1.57,0.42,2.46
15.971,2.20,1.80,0.02,2.84
15.981,2.37,1.89,-0.20,3.04
15.991,2.42,1.97,-0.14,3.13
16.001,1.97,2.53,0.12,3.21
16.011,0.75,4.57,0.76,4.70
16.021,0.42,3.78,0.91,3.91
16.031,0.58,1.39,0.52,1.59
16.041,-0.09,0.27,0.47,0.55
16.051,-1.05,-0.02,0.44,1.14
16.062,-1.74,0.06,0.32,1.77
16.072,-2.00,0.50,0.34,2.09
16.082,-2.13,1.20,0.38,2.48
16.092,-2.13,1.25,0.51,2.53
16.102,-1.76,1.12,0.57,2.16
16.112,-1.33,1.47,0.20,1.99
16.122,-1.07,1.91,0.69,2.29
16.132,-1.14,1.74,1.68,2.67
16.142,-1.47,0.62,2.51,2.97
16.152,-2.26,-0.06,2.85,3.64
16.162,-2.52,-0.10,3.04,3.95
16.172,-2.18,-0.07,2.46,3.29
16.182,-1.65,-0.72,1.36,2.26
16.192,-1.14,-2.27,-0.28,2.56
16.202,-0.13,-3.32,-1.77,3.76
16.212,1.10,-4.16,-3.06,5.28
16.223,2.59,-4.54,-3.45,6.26
16.233,3.98,-4.19,-2.74,6.39
16.243,5.23,-3.68,-1.25,6.52
16.253,6.01,-4.88,-0.99,7.81
16.263,8.00,-6.80,-6.71,12.46
16.273,8.44,-5.61,-8.54,13.25
16.283,6.31,-4.01,-3.98,8.47
16.293,4.13,-3.81,-2.42,6.11
16.303,1.59,-3.26,-2.88,4.63
16.313,-1.06,-3.63,-5.36,6.56
16.323,-2.96,-3.43,-6.77,8.15
16.333,-4.00,-3.04,-6.19,7.97
16.343,-4.38,-1.93,-5.46,7.26
16.353,-4.05,-0.27,-4.83,6.30
16.363,-2.77,1.74,-3.77,4.99
16.373,-1.16,2.79,-2.27,3.77
16.384,0.10,3.51,-1.55,3.83
16.394,0.67,3.85,-1.03,4.05
16.404,0.40,2.91,0.00,2.94
16.414,-0.53,1.50,1.05,1.91
16.424,-1.23,0.31,1.46,1.93
16.434,-1.63,-1.67,1.64,2.86
16.444,-1.98,-2.69,2.81,4.37
16.454,-2.13,-3.18,4.10,5.61
16.464,-2.18,-3.87,4.87,6.59
16.474,-2.07,-4.06,5.11,6.85
16.484,-2.28,-4.05,4.73,6.63
16.494,-2.27,-4.00,4.17,6.20
16.505,-2.04,-3.83,3.31,5.46
16.515,-1.52,-3.42,2.52,4.51
16.525,-0.70,-2.77,2.21,3.61
16.535,0.10,-1.84,1.80,2.57
16.545,0.47,-1.11,1.39,1.84
16.555,0.19,-0.66,1.00,1.21
16.565,-0.38,-0.26,1.25,1.33
16.575,-0.87,-0.19,1.66,1.89
16.585,-1.26,-0.59,1.59,2.11
16.595,-1.33,-1.21,1.24,2.18
16.605,-1.74,-0.58,0.95,2.07
16.615,-2.15,-0.22,0.69,2.27
16.625,-2.56,-0.25,0.73,2.67
16.635,-3.05,0.19,1.02,3.22
16.646,-3.54,0.86,1.78,4.05
16.655,-3.76,0.78,2.34,4.49
16.666,-3.53,0.91,2.43,4.38
16.676,-3.31,0.90,2.06,4.00
16.686,-3.08,0.13,1.23,3.31
16.696,-2.55,-0.10,0.50,2.60
16.706,-2.21,-0.71,0.57,2.39
16.716,-1.81,-1.26,1.00,2.42
16.726,-1.24,-0.76,1.52,2.10
16.736,-0.82,-0.10,1.79,1.97
16.746,-0.71,-0.02,1.08,1.30
16.756,-0.90,-0.45,0.04,1.01
16.766,-0.58,-0.92,-0.40,1.16
16.777,-0.46,-0.89,-0.70,1.22
16.787,-0.54,-0.03,-0.80,0.97
16.797,-0.78,0.69,-0.87,1.35
16.807,-1.28,1.03,-1.06,1.96
16.817,-1.66,0.85,-1.58,2.44
16.827,-1.64,0.10,-2.35,2.87
16.837,-0.68,-0.22,-3.62,3.69
16.847,0.69,0.25,-5.69,5.74
16.857,1.89,1.24,-5.54,5.98
16.867,2.20,0.89,-2.31,3.31
16.877,1.86,-0.35,0.04,1.90
16.887,1.57,-1.79,0.01,2.38
16.897,1.28,-2.74,-0.15,3.03
16.907,0.67,-3.01,-1.32,3.36
16.917,0.37,-3.15,-3.16,4.48
16.928,0.65,-3.34,-3.65,4.99
16.938,0.82,-2.42,-1.92,3.19
16.948,0.73,-0.32,-0.40,0.89
16.958,0.82,1.51,0.05,1.72
16.968,0.96,2.97,0.31,3.14
16.978,1.11,3.27,0.93,3.57
16.988,1.04,1.75,-0.85,2.20
16.998,1.23,0.40,-3.79,4.00
17.008,2.65,-0.10,-5.01,5.67
17.018,4.90,-0.25,-4.05,6.36
17.028,6.62,1.90,-0.86,6.94
17.038,6.53,2.51,0.87,7.05
17.048,5.42,3.43,1.82,6.67
17.058,3.52,2.36,1.24,4.42
17.068,1.65,-0.10,0.74,1.81
17.078,-1.75,-1.93,-0.83,2.73
17.089,-4.59,-3.19,-2.51,6.13
17.099,-5.33,-2.50,-2.20,6.28
17.109,-4.98,-0.85,-0.60,5.08
17.119,-4.46,-0.24,0.26,4.47
17.129,-3.79,-0.29,0.69,3.86
17.139,-3.87,-0.18,0.09,3.87
17.149,-4.56,-0.40,-0.83,4.65
17.159,-5.25,-0.50,-1.42,5.46
17.169,-5.43,0.12,-1.37,5.60
17.179,-5.59,0.14,-1.24,5.73
17.189,-5.45,1.12,-0.99,5.66
17.199,-5.43,1.35,-1.79,5.87
17.209,-5.29,1.72,-2.47,6.09
17.219,-5.06,0.87,-2.59,5.75
17.230,-3.93,1.21,-1.67,4.44
17.240,-1.95,1.50,-0.32,2.48
17.250,0.06,0.81,0.53,0.97
17.260,2.22,0.83,1.22,2.66
17.270,3.19,1.94,1.84,4.16
17.280,2.98,2.66,2.14,4.53
17.290,2.49,2.75,1.81,4.13
17.300,1.42,1.36,1.10,2.26
17.310,0.28,0.60,0.03,0.67
17.320,-1.13,-0.02,-1.01,1.52
17.330,-2.51,0.42,-2.10,3.30
17.340,-3.43,1.17,-2.65,4.48
17.350,-3.49,0.76,-2.84,4.56
17.360,-3.21,0.83,-2.56,4.19
17.371,-2.68,0.59,-2.36,3.62
17.381,-3.01,0.42,-2.26,3.78
17.391,-2.56,0.40,-1.52,3.01
17.401,-0.65,-0.15,-0.47,0.82
17.411,0.18,0.38,-0.61,0.74
17.421,0.60,0.27,0.02,0.66
17.431,1.40,-0.50,1.25,1.94
17.441,1.97,-0.78,1.63,2.67
17.451,2.70,-0.63,1.64,3.22
17.461,4.03,-2.66,1.39,5.03
17.471,4.04,-3.55,-0.43,5.40
17.481,3.20,-2.99,-1.18,4.53
17.491,2.04,-2.81,-1.47,3.77
17.501,1.57,-2.71,-1.99,3.71
17.512,1.58,-2.47,-2.26,3.70
17.522,1.70,-2.08,-2.05,3.38
17.532,2.23,-1.81,-1.31,3.16
17.542,3.04,-1.85,-0.48,3.59
17.552,3.89,-1.88,0.54,4.35
17.562,4.52,-1.97,2.02,5.33
17.572,4.54,-1.87,3.24,5.88
17.582,4.18,-1.67,3.81,5.90
17.592,3.67,-1.50,4.18,5.76
17.602,3.14,-1.59,4.56,5.76
17.612,3.15,-1.88,5.31,6.46
17.622,3.67,-1.69,6.12,7.33
17.633,4.33,-1.16,6.66,8.03
17.642,4.98,-0.27,7.02,8.61
17.653,5.10,0.57,6.96,8.65
17.663,4.77,0.77,6.73,8.29
17.673,4.30,0.74,6.64,7.94
17.683,3.71,0.78,6.60,7.62
17.693,3.10,1.04,6.36,7.15
17.703,2.48,1.30,5.83,6.47
17.713,1.77,1.43,5.25,5.72
17.723,1.17,1.37,4.85,5.18
17.733,0.81,1.35,4.55,4.81
17.743,0.58,1.45,4.12,4.40
17.753,0.47,1.47,3.69,4.00
17.763,0.47,1.38,3.26,3.57
17.773,0.56,1.42,3.16,3.51
17.783,0.42,1.47,3.37,3.70
17.794,-0.21,1.49,3.45,3.76
17.804,-1.07,1.43,3.27,3.73
17.814,-2.03,1.11,2.80,3.63
17.824,-2.88,0.86,2.12,3.68
17.834,-3.42,0.59,1.37,3.73
17.844,-3.50,0.61,0.86,3.66
17.854,-3.41,0.90,0.74,3.60
17.864,-3.50,0.77,0.74,3.66
17.874,-3.79,0.25,0.65,3.85
17.884,-4.06,-0.42,0.60,4.13
17.894,-4.19,-0.77,0.56,4.30
17.904,-4.24,-0.97,0.35,4.36
17.914,-4.06,-0.97,-0.00,4.18
17.924,-3.55,-1.03,-0.48,3.73
17.935,-3.05,-1.05,-0.72,3.30
17.945,-2.94,-1.23,-0.70,3.26
17.955,-3.17,-1.86,-0.86,3.77
17.965,-3.53,-2.83,-1.13,4.66
17.975,-3.78,-3.36,-1.23,5.20
17.985,-3.98,-3.40,-1.29,5.39
17.995,-4.01,-3.10,-1.33,5.24
18.005,-3.71,-2.45,-1.47,4.68
18.015,-3.33,-2.12,-1.81,4.34
18.025,-3.05,-2.22,-2.12,4.33
18.035,-3.00,-2.79,-2.37,4.73
18.045,-3.06,-3.48,-2.63,5.33
18.055,-3.05,-4.03,-2.70,5.73
18.065,1.05,-4.21,1.70,4.66
18.076,11.36,-4.38,13.56,18.23
18.086,1.50,-5.26,-0.45,5.48
18.096,-2.99,-4.16,-3.90,6.44
18.106,-2.37,-3.25,-0.59,4.07
18.116,-2.29,-3.38,-1.43,4.32
18.126,-2.52,-3.29,-1.54,4.42
18.136,-3.62,-2.97,-1.68,4.97
18.146,-4.87,-2.71,-1.62,5.80
18.156,-4.06,-2.29,-1.36,4.85
18.166,-2.37,-2.03,-0.13,3.13
18.176,0.09,-2.38,0.98,2.57
18.186,2.22,-3.42,0.33,4.09
18.196,3.33,-3.57,-1.26,5.04
18.206,4.17,-3.05,-2.55,5.76
18.217,4.88,-2.55,-3.06,6.31
18.226,4.35,-2.04,-2.56,5.44
18.237,3.16,-2.12,-1.50,4.09
18.247,2.11,-2.75,-1.44,3.75
18.257,1.50,-2.93,-1.62,3.67
18.267,1.08,-2.59,-1.33,3.10
18.277,1.33,-2.14,-0.55,2.58
18.287,1.74,-1.79,-0.07,2.50
18.297,1.78,-1.66,0.16,2.44
18.307,1.75,-1.73,-0.36,2.48
18.317,1.78,-1.91,-1.10,2.83
18.327,1.71,-1.83,-1.12,2.74
18.337,1.75,-1.59,-0.29,2.38
18.347,1.25,-1.09,0.71,1.80
18.358,0.40,-0.79,0.74,1.15
18.368,-0.27,-0.90,-0.06,0.94
18.378,-0.03,-0.67,-0.52,0.85
18.388,0.57,-0.55,-1.01,1.28
18.398,0.74,-0.60,-1.56,1.83
18.408,1.01,-0.62,-1.68,2.05
18.418,1.31,-0.18,-1.49,1.99
18.428,0.94,-0.12,-1.25,1.56
18.438,0.16,-0.38,-0.80,0.90
18.448,-0.44,-0.48,-0.65,0.92
18.458,-0.82,-0.46,-0.80,1.24
18.468,-0.66,-0.11,-0.85,1.08
18.479,-0.25,-0.08,-1.02,1.06
18.488,-0.12,-0.05,-1.26,1.27
18.498,-0.10,0.24,-0.92,0.96
18.508,-0.02,0.37,-0.31,0.48
18.519,-0.07,0.30,-0.23,0.38
18.529,-0.19,0.03,-0.20,0.28
18.539,0.14,-0.24,-0.39,0.48
18.549,0.02,-0.09,-0.46,0.47
18.559,0.05,-0.03,-0.63,0.64
18.569,0.22,-0.10,-0.60,0.65
18.579,0.37,-0.16,-0.25,0.47
18.589,0.52,-0.24,-0.03,0.57
18.599,0.49,-0.30,0.12,0.59
18.609,0.48,-0.45,0.14,0.67
18.619,0.70,-0.51,-0.04,0.87
18.629,1.04,-0.50,-0.30,1.19
18.639,1.05,-0.53,-0.31,1.22
18.649,0.82,-0.49,-0.38,1.03
18.659,0.73,-0.23,-0.73,1.06
18.669,0.60,-0.05,-0.89,1.07
18.680,0.46,0.00,-0.39,0.60
18.690,0.43,0.34,-0.67,0.86
18.700,0.02,0.27,-0.52,0.59
18.710,-0.09,0.12,-0.27,0.31
18.720,0.17,0.33,-0.27,0.46
