time,ax,ay,az,atotal
0.000,-1.37,-0.92,-0.15,1.65
0.010,-1.56,-0.74,-0.46,1.78
0.020,-1.75,-0.53,-0.81,2.00
0.030,-1.88,-0.15,-0.98,2.13
0.040,-1.81,0.24,-1.09,2.12
0.050,-1.83,0.56,-1.00,2.16
0.060,-1.68,0.54,-0.79,1.93
0.070,-1.31,0.51,-0.36,1.45
0.081,-0.99,0.40,-0.04,1.07
0.091,-0.74,0.18,0.25,0.80
0.101,-0.72,-0.09,0.28,0.78
0.111,-0.91,-0.31,0.18,0.98
0.121,-1.14,-0.49,0.29,1.27
0.131,-1.10,-0.54,0.42,1.29
0.141,-1.32,-0.36,0.62,1.50
0.151,-1.39,-0.56,0.76,1.68
0.161,-1.22,-0.93,0.62,1.66
0.171,-1.34,-1.04,0.54,1.78
0.181,-1.34,-0.95,0.41,1.70
0.191,-1.38,-0.87,0.08,1.64
0.201,-1.77,-0.39,0.28,1.83
0.212,-1.45,-0.24,0.40,1.52
0.222,-1.28,-0.92,0.06,1.57
0.232,-1.68,-1.71,0.03,2.40
0.242,-1.91,-2.23,0.04,2.93
0.252,-1.93,-2.23,-0.31,2.97
0.262,-2.20,-1.46,-0.70,2.73
0.272,-1.72,0.19,-0.59,1.83
0.282,-0.46,0.87,-0.60,1.15
0.292,0.40,0.41,-0.59,0.82
0.302,0.44,0.17,-0.37,0.60
0.312,0.14,-0.23,-0.43,0.51
0.322,0.10,-0.66,-0.55,0.87
0.332,0.13,-1.02,-0.34,1.09
0.342,0.06,-1.47,-0.06,1.47
0.352,0.03,-1.81,-0.29,1.83
0.362,-0.04,-1.93,-0.69,2.05
0.373,-0.07,-1.79,-0.87,1.99
0.383,0.37,-1.41,-1.73,2.26
0.393,-0.03,-1.11,-2.22,2.48
0.403,-0.72,-0.79,-2.61,2.82
0.413,-1.03,-0.74,-2.64,2.93
0.423,-1.40,-1.01,-2.53,3.06
0.433,-1.65,-1.27,-2.80,3.49
0.443,-1.45,-1.40,-3.36,3.92
0.453,-0.89,-1.52,-3.74,4.13
0.463,-0.61,-1.57,-3.79,4.15
0.473,-0.94,-1.82,-3.64,4.17
0.483,-1.58,-2.35,-3.53,4.52
0.493,-2.35,-2.83,-3.60,5.15
0.504,-2.96,-3.17,-3.60,5.63
0.514,-3.31,-3.53,-4.00,6.28
0.524,-3.45,-3.61,-4.22,6.54
0.534,-3.23,-3.46,-3.90,6.13
0.544,-2.96,-3.37,-3.35,5.60
0.554,-3.02,-3.62,-2.63,5.40
0.564,-3.07,-3.82,-1.93,5.27
0.574,-3.12,-3.70,-1.36,5.02
0.584,-3.16,-3.50,-0.77,4.78
0.594,-2.99,-3.42,-0.01,4.54
0.604,-2.55,-3.20,1.11,4.24
0.614,-2.19,-3.04,2.21,4.35
0.624,-1.66,-3.08,3.08,4.66
0.635,-1.27,-2.89,3.77,4.92
0.645,-0.88,-2.44,4.02,4.78
0.655,-0.87,-2.31,3.67,4.43
0.665,-0.51,-2.27,3.43,4.14
0.675,0.21,-2.03,3.44,4.00
0.685,1.39,-1.66,3.90,4.46
0.695,2.53,-1.27,4.33,5.17
0.705,3.63,-0.78,4.44,5.79
0.715,4.91,0.09,4.41,6.59
0.725,6.05,0.87,4.32,7.48
0.735,7.31,0.94,4.11,8.43
0.745,7.36,1.22,4.22,8.57
0.755,6.55,1.87,4.47,8.15
0.765,5.54,2.56,4.24,7.43
0.776,5.18,3.03,3.61,7.00
0.786,4.92,3.41,2.95,6.67
0.796,5.42,3.06,2.29,6.63
0.806,5.34,3.00,1.81,6.39
0.816,5.06,3.08,1.32,6.06
0.826,4.49,2.82,0.84,5.37
0.836,3.19,2.51,0.58,4.10
0.846,2.32,2.21,0.84,3.31
0.856,2.86,2.25,0.83,3.73
0.866,3.57,2.31,0.33,4.27
0.876,4.15,2.33,-0.38,4.78
0.886,5.31,2.74,-3.82,7.09
0.896,7.67,4.73,-12.50,15.41
0.906,5.16,4.91,-10.91,13.03
0.916,3.29,1.94,-3.69,5.31
0.926,3.29,1.38,-2.05,4.11
0.937,3.41,2.48,-1.85,4.60
0.947,4.05,1.54,-2.49,4.99
0.957,4.23,0.34,-1.96,4.67
0.967,2.08,1.30,1.68,2.97
0.977,-2.63,-0.23,0.12,2.65
0.987,-5.61,-1.34,-3.15,6.57
0.997,-3.17,-0.71,-2.21,3.93
1.007,0.65,0.23,-0.70,0.98
1.017,0.19,0.47,-0.30,0.59
1.027,-2.11,0.73,-0.91,2.42
1.037,-3.98,-0.24,-0.76,4.06
1.047,-4.54,-0.36,0.73,4.62
1.057,-5.67,-0.45,1.52,5.89
1.067,-6.01,-0.77,1.51,6.24
1.078,-5.64,-0.81,1.62,5.92
1.088,-5.77,-0.33,0.93,5.85
1.098,-3.89,-1.46,0.24,4.17
1.108,-3.23,-1.56,0.03,3.58
1.118,-2.60,-1.72,-0.01,3.12
1.128,-1.96,-1.95,-0.49,2.81
1.138,-1.63,-1.76,-0.60,2.47
1.148,-1.37,-1.48,-0.53,2.08
1.159,-0.28,-1.31,0.43,1.41
1.168,0.55,-1.22,1.99,2.40
1.178,0.17,-1.13,2.83,3.05
1.188,-2.65,3.52,3.28,5.49
1.198,3.92,1.20,2.81,4.97
1.208,7.29,-0.70,1.86,7.56
1.219,4.79,2.23,1.74,5.56
1.229,2.71,1.33,2.13,3.69
1.239,1.92,0.37,1.29,2.34
1.249,-0.74,0.72,0.84,1.33
1.259,-1.11,-0.12,-0.39,1.19
1.269,-0.53,-0.28,-0.67,0.90
1.279,-0.14,0.09,-0.74,0.76
1.289,0.12,0.47,-0.92,1.04
1.299,0.52,0.76,-1.38,1.66
1.309,0.96,0.60,-1.33,1.74
1.319,1.40,0.03,-1.40,1.98
1.329,1.52,-0.31,-1.53,2.18
1.339,1.01,-0.31,-1.33,1.70
1.349,-0.30,0.72,-1.01,1.27
1.359,-1.17,0.97,-1.36,2.04
1.369,-1.45,0.37,-2.09,2.57
1.380,-1.83,0.77,-2.31,3.04
1.390,-1.74,0.10,-2.46,3.01
1.400,-1.56,0.64,-2.11,2.71
1.410,-1.46,0.32,-1.71,2.27
1.420,-1.32,0.09,-0.71,1.51
1.430,-0.43,-0.19,-0.17,0.50
1.440,0.84,-0.37,0.55,1.07
1.450,2.69,0.06,1.46,3.06
1.460,4.03,-0.07,2.30,4.64
1.470,4.39,-0.34,3.06,5.36
1.480,3.52,-0.99,3.05,4.76
1.490,1.86,-1.89,2.90,3.93
1.500,0.08,-2.25,2.64,3.47
1.511,-1.28,-2.53,1.95,3.44
1.521,-2.36,-2.79,0.73,3.73
1.531,-3.17,-2.48,-1.59,4.33
1.541,-2.98,-1.87,-4.26,5.52
1.551,-1.58,-0.49,-4.16,4.48
1.561,-1.10,1.06,-2.78,3.18
1.571,-1.06,2.29,-1.81,3.11
1.581,-0.88,2.71,-1.14,3.07
1.591,-0.66,2.57,-0.72,2.74
1.601,-0.49,1.87,-0.54,2.01
1.611,-0.31,0.80,-0.50,0.99
1.621,0.06,0.08,-0.62,0.63
1.631,0.33,-0.07,-0.56,0.66
1.641,0.38,0.07,-0.16,0.42
1.652,0.03,0.57,0.53,0.78
1.662,-1.05,0.74,1.14,1.72
1.672,-1.62,0.97,1.12,2.20
1.682,-1.17,1.61,0.70,2.11
1.692,-0.52,2.40,0.41,2.49
1.702,-0.49,2.97,0.11,3.01
1.712,-1.20,3.45,-0.12,3.65
1.722,-1.69,3.54,0.04,3.92
1.732,-1.79,3.38,0.58,3.87
1.742,-1.54,2.52,1.42,3.28
1.752,-1.40,1.31,2.01,2.78
1.762,-1.45,0.44,2.09,2.58
1.772,-1.72,1.65,0.68,2.47
1.782,-1.74,1.87,-0.15,2.56
1.792,-1.55,2.13,-1.07,2.84
1.803,-1.53,1.17,-0.25,1.94
1.813,-1.79,-1.66,2.74,3.67
1.823,-1.77,-2.95,2.28,4.12
1.833,-1.25,-2.12,-0.43,2.49
1.843,-0.70,-3.53,-1.56,3.92
1.853,-0.89,-5.02,-1.79,5.41
1.863,-0.76,-4.80,-1.55,5.10
1.873,-0.01,-4.59,-1.19,4.74
1.883,0.83,-4.47,-0.93,4.64
1.893,1.68,-3.69,-0.56,4.09
1.903,2.60,-2.97,-0.39,3.97
1.913,3.13,-2.96,-0.08,4.31
1.923,3.67,-2.75,0.03,4.58
1.934,4.12,-2.60,-0.01,4.87
1.944,4.25,-1.87,-0.23,4.64
1.954,3.97,-1.09,-0.60,4.16
1.964,3.56,-0.48,-0.97,3.72
1.974,3.06,-0.60,-1.33,3.39
1.984,2.40,-0.68,-1.60,2.96
1.994,1.25,-0.65,-1.56,2.11
2.004,0.38,-0.68,-1.39,1.60
2.014,-0.03,-0.55,-1.27,1.38
2.024,-0.29,-0.20,-1.15,1.20
2.034,-0.53,0.18,-0.94,1.09
2.044,-0.71,0.58,-0.53,1.06
2.054,-0.92,0.97,-0.08,1.33
2.064,-1.10,1.04,0.30,1.54
2.074,-1.20,0.77,0.54,1.53
2.085,-1.33,0.97,0.52,1.73
2.095,-1.54,2.30,0.31,2.78
2.105,-1.66,2.98,0.17,3.42
2.115,-1.52,2.80,0.07,3.19
2.125,-0.51,1.53,0.35,1.65
2.135,0.02,0.15,0.52,0.54
2.145,-0.13,-0.75,0.29,0.81
2.155,-0.32,-1.72,0.05,1.75
2.165,-0.21,-2.22,-0.08,2.23
2.175,0.21,-1.83,0.03,1.84
2.185,0.70,-0.95,0.49,1.28
2.195,1.08,-0.37,1.04,1.54
2.205,1.27,-0.24,1.52,1.99
2.215,1.35,-0.29,1.73,2.21
2.225,1.43,-0.42,1.69,2.25
2.236,1.57,-0.76,1.59,2.37
2.246,1.58,-1.10,1.45,2.41
2.256,1.49,-1.15,1.25,2.26
2.266,1.39,-0.89,0.90,1.88
2.276,1.23,-0.54,0.42,1.40
2.286,1.07,-0.53,-0.06,1.19
2.296,0.84,-0.57,-0.39,1.09
2.306,0.60,-0.78,-0.53,1.12
2.316,0.47,-0.77,-0.55,1.05
2.326,0.41,-0.61,-0.49,0.88
2.336,0.49,-0.18,-0.38,0.65
2.346,0.55,0.35,-0.32,0.73
2.356,0.54,0.76,-0.38,1.01
2.366,0.38,0.97,-0.58,1.19
2.376,0.14,0.98,-0.87,1.32
2.387,0.04,0.97,-1.09,1.46
2.397,0.24,0.85,-1.29,1.56
2.407,0.59,0.50,-1.38,1.58
2.417,0.93,0.20,-1.27,1.59
2.427,1.11,-0.00,-1.18,1.62
2.437,1.16,-0.18,-1.14,1.63
2.447,1.10,-0.34,-1.13,1.61
2.457,0.99,-0.36,-1.13,1.55
2.467,0.88,-0.16,-1.12,1.43
2.477,0.74,0.07,-1.17,1.39
2.487,0.63,0.20,-1.31,1.47
2.497,0.58,0.20,-1.41,1.54
2.507,0.52,0.12,-1.47,1.56
2.517,0.36,-0.02,-1.61,1.65
2.528,0.21,-0.29,-1.86,1.90
2.538,0.05,-0.59,-2.29,2.37
2.548,-0.10,-0.92,-2.97,3.11
2.558,-0.08,-1.17,-3.66,3.84
2.568,0.11,-1.42,-4.91,5.12
2.578,0.52,-1.52,-6.85,7.04
2.588,0.93,-1.34,-8.02,8.18
2.598,0.98,-1.19,-7.16,7.32
2.608,0.58,-1.07,-4.95,5.10
2.618,0.06,-1.04,-2.54,2.74
2.628,-0.36,-1.09,-0.39,1.21
2.638,-0.64,-1.34,1.28,1.96
2.648,-1.46,-1.75,2.38,3.30
2.658,-2.33,-2.16,2.30,3.93
2.669,-2.34,-2.40,1.22,3.57
2.679,-2.49,-2.51,-0.38,3.56
2.689,-2.27,-2.17,-1.70,3.57
2.699,-1.11,-1.53,-2.62,3.23
2.709,-0.04,-0.90,-2.77,2.91
2.719,0.30,-0.41,-1.34,1.43
2.729,0.55,-0.27,0.47,0.77
2.739,0.91,-0.14,1.08,1.42
2.749,1.10,0.32,2.76,2.99
2.759,0.63,0.51,4.94,5.01
2.769,0.06,0.41,5.91,5.93
2.779,-0.36,0.31,5.57,5.59
2.789,-0.45,0.23,4.82,4.85
2.799,-0.18,0.15,3.76,3.77
2.810,0.02,0.11,2.51,2.52
2.820,0.41,0.05,1.22,1.29
2.830,1.11,-0.02,-0.11,1.12
2.840,1.61,-0.17,-0.58,1.72
2.850,1.53,-0.32,-0.14,1.57
2.860,0.92,-0.14,0.52,1.07
2.870,0.19,0.26,1.11,1.15
2.880,-0.35,0.73,1.51,1.72
2.890,-0.68,1.06,1.66,2.08
2.900,-0.82,1.40,1.90,2.50
2.910,-1.02,1.77,2.04,2.89
2.920,-1.30,2.18,2.11,3.30
2.930,-1.41,2.55,2.20,3.66
2.941,-1.37,2.86,2.28,3.91
2.951,-1.26,3.00,2.31,3.99
2.961,-1.09,2.97,2.17,3.84
2.971,-0.82,2.82,1.92,3.51
2.981,-0.48,2.59,1.55,3.06
2.991,-0.18,2.42,1.09,2.65
3.001,0.18,2.13,0.57,2.21
3.011,0.53,1.82,0.08,1.90
3.021,0.85,1.50,-0.32,1.75
3.031,1.18,1.21,-0.63,1.80
3.041,1.46,0.96,-0.88,1.96
3.051,1.57,0.76,-1.04,2.03
3.061,1.56,0.58,-1.16,2.03
3.071,1.45,0.49,-1.32,2.02
3.081,1.26,0.48,-1.47,1.99
3.092,1.06,0.54,-1.61,2.00
3.102,0.90,0.77,-1.66,2.04
3.112,0.76,1.15,-1.59,2.10
3.122,0.42,1.69,-1.39,2.23
3.132,-0.05,2.41,-1.13,2.66
3.142,-0.55,3.15,-0.98,3.35
3.152,-0.92,3.76,-0.98,3.99
3.162,-1.13,4.10,-1.04,4.37
3.172,-1.29,4.19,-1.19,4.54
3.182,-1.35,4.04,-1.30,4.46
3.192,-1.47,3.82,-1.28,4.29
3.202,-1.54,3.48,-1.10,3.96
3.212,-1.33,3.08,-0.69,3.43
3.223,-0.97,2.79,-0.37,2.97
3.232,-0.52,2.43,-0.33,2.51
3.243,-0.03,1.93,-0.43,1.97
3.253,0.26,1.27,-0.34,1.34
3.263,0.24,0.67,-0.20,0.74
3.273,0.16,0.25,-0.43,0.52
3.283,0.26,0.20,-0.75,0.82
3.293,-0.03,-0.36,-2.96,2.98
3.303,-0.38,-1.37,-3.14,3.45
3.313,-0.39,-2.18,-1.65,2.76
3.323,-0.72,-3.18,-2.02,3.83
3.333,-0.99,-3.76,-1.80,4.28
3.343,-0.96,-3.47,-0.34,3.62
3.353,-1.00,-3.16,1.29,3.55
3.363,-0.82,-2.11,2.40,3.30
3.374,-0.22,-0.14,3.00,3.01
3.384,0.58,1.05,3.10,3.33
3.394,1.34,1.48,3.22,3.79
3.404,1.67,-0.15,3.09,3.52
3.414,1.00,-3.71,2.39,4.52
3.424,1.32,-8.71,-0.77,8.85
3.434,3.74,-13.35,-5.91,15.07
3.444,2.99,-11.89,-7.55,14.40
3.454,-0.14,-9.35,-8.34,12.53
3.464,-2.08,-4.64,-4.47,6.77
3.474,-2.75,-1.25,3.29,4.47
3.484,-2.50,-1.28,5.76,6.41
3.494,-2.09,-0.11,6.98,7.29
3.504,-1.21,1.09,6.89,7.08
3.514,-0.69,1.80,5.51,5.83
3.525,-0.40,1.95,4.47,4.89
3.535,0.23,0.68,3.40,3.47
3.545,0.62,-0.61,2.51,2.66
3.555,1.09,-0.70,1.67,2.12
3.565,1.89,-0.34,0.55,2.00
3.575,2.58,0.31,-0.87,2.74
3.585,2.75,1.11,-2.28,3.74
3.595,2.51,1.58,-3.06,4.26
3.605,1.52,1.28,-2.72,3.36
3.615,0.61,0.73,-1.64,1.90
3.625,0.06,0.49,-0.71,0.87
3.635,-0.30,0.56,-0.39,0.75
3.645,-0.52,0.80,-0.58,1.12
3.655,-0.41,1.07,-0.98,1.51
3.665,-0.05,1.23,-1.50,1.94
3.676,0.35,1.37,-1.84,2.32
3.686,0.74,1.50,-1.69,2.38
3.696,1.07,1.55,-1.22,2.24
3.706,1.33,1.83,-1.05,2.49
3.716,1.55,2.25,-1.20,2.99
3.726,1.65,2.77,-1.40,3.52
3.736,1.42,3.50,-1.76,4.17
3.746,0.87,4.03,-2.22,4.68
3.756,0.42,4.30,-2.46,4.97
3.766,0.35,4.17,-2.26,4.76
3.776,0.57,3.73,-1.34,4.00
3.786,0.68,3.32,-0.72,3.47
3.796,1.01,2.89,-0.64,3.13
3.807,1.55,2.25,-0.62,2.80
3.817,1.93,1.66,-0.66,2.63
3.827,2.02,1.46,-0.82,2.62
3.837,2.51,1.29,-1.42,3.16
3.847,3.23,1.14,-2.86,4.46
3.857,3.78,0.98,-4.86,6.23
3.867,3.88,0.36,-6.56,7.63
3.877,3.22,-0.86,-6.55,7.35
3.887,3.04,-2.00,-5.36,6.48
3.897,2.30,-3.49,-6.46,7.69
3.907,-0.04,-3.66,-0.19,3.66
3.917,-2.12,-3.96,3.81,5.89
3.927,-2.55,-5.67,3.86,7.32
3.938,-2.63,-8.73,3.53,9.77
3.948,-2.93,-12.44,2.95,13.12
3.958,-3.11,-15.93,2.11,16.37
3.968,-3.43,-16.00,0.91,16.39
3.978,-4.24,-11.03,0.46,11.83
3.988,-3.93,-4.19,0.72,5.79
3.998,-3.03,0.25,1.12,3.24
4.008,-2.11,3.43,2.23,4.60
4.018,-1.66,5.38,3.29,6.52
4.028,-1.37,6.28,3.80,7.47
4.038,-0.82,5.84,3.73,6.98
4.048,-0.14,2.95,3.62,4.67
4.058,-0.65,-0.07,3.73,3.79
4.068,-1.53,-2.08,3.72,4.53
4.078,-2.23,-3.11,3.21,4.99
4.089,-3.22,-2.58,2.24,4.69
4.099,-3.73,-1.24,1.38,4.17
4.109,-3.63,0.35,1.08,3.80
4.119,-3.39,2.12,1.24,4.18
4.129,-3.03,3.72,1.63,5.07
4.139,-2.80,5.27,1.91,6.27
4.149,-2.59,6.38,2.09,7.19
4.159,-2.15,7.08,2.18,7.72
4.169,-1.49,7.54,1.92,7.93
4.179,-0.69,7.81,1.61,8.00
4.189,-0.15,7.70,1.47,7.84
4.199,0.24,7.30,1.27,7.41
4.209,0.63,6.61,0.97,6.71
4.219,1.02,5.66,0.60,5.78
4.229,1.27,4.36,0.08,4.54
4.240,1.54,2.64,-1.34,3.33
4.249,2.31,0.20,-4.66,5.20
4.260,3.52,-2.10,-6.97,8.09
4.270,4.32,-3.27,-6.67,8.59
4.280,3.68,-3.13,-6.04,7.74
4.290,1.97,-1.87,-5.14,5.82
4.300,0.82,-0.69,-4.30,4.43
4.310,0.05,-0.04,-4.23,4.23
4.320,-0.48,0.01,-4.84,4.87
4.330,-1.16,-0.89,-5.93,6.11
4.340,-2.14,-2.45,-6.29,7.09
4.350,-2.55,-3.60,-3.74,5.78
4.360,-2.52,-4.00,-0.02,4.73
4.370,-2.46,-4.40,2.23,5.51
4.380,-2.95,-4.34,4.75,7.08
4.391,-3.66,-3.56,5.12,7.23
4.401,-3.31,-1.87,4.96,6.25
4.411,-2.20,0.32,4.41,4.94
4.421,-0.93,2.01,3.41,4.07
4.431,-0.81,1.73,1.92,2.71
4.441,-1.04,-4.48,-6.45,7.92
4.451,1.56,-13.06,-18.12,22.39
4.461,1.69,-13.80,-9.83,17.03
4.471,1.45,-11.80,-1.89,12.04
4.481,1.72,-9.91,-0.04,10.06
4.491,1.06,-6.48,1.25,6.68
4.501,0.51,-2.95,2.79,4.09
4.511,0.15,-0.98,4.40,4.51
4.522,0.20,0.19,4.41,4.42
4.532,0.28,1.45,4.07,4.33
4.542,0.74,2.72,4.50,5.31
4.552,0.68,3.47,4.74,5.91
4.562,0.38,3.62,4.69,5.94
4.572,0.21,3.38,4.57,5.69
4.582,0.29,2.96,4.41,5.32
4.592,0.62,2.44,4.02,4.74
4.602,1.02,1.78,3.28,3.87
4.612,1.26,1.29,2.70,3.25
4.622,1.58,0.75,1.80,2.51
4.632,2.20,0.14,-0.48,2.25
4.642,2.73,-0.09,-6.00,6.59
4.652,2.37,0.14,-12.21,12.44
4.662,1.48,0.65,-10.52,10.65
4.672,0.57,1.13,-4.70,4.87
4.683,-0.46,1.58,-0.30,1.68
4.693,-0.99,1.87,1.58,2.64
4.703,-1.07,2.14,1.57,2.86
4.713,-0.78,2.75,1.56,3.25
4.723,-0.62,3.44,1.89,3.97
4.733,-0.56,3.91,2.30,4.57
4.743,-0.24,4.40,2.32,4.98
4.753,0.40,4.78,2.04,5.21
4.763,1.10,4.84,1.64,5.23
4.773,1.56,4.68,1.22,5.08
4.783,1.98,4.00,0.64,4.51
4.793,2.35,2.96,-0.28,3.79
4.803,2.77,1.72,-2.05,3.85
4.813,3.29,0.41,-4.45,5.55
4.824,3.57,-0.70,-6.16,7.16
4.834,3.86,-1.72,-7.00,8.18
4.844,3.99,-2.40,-6.24,7.78
4.854,3.05,-3.09,-5.67,7.15
4.864,1.47,-4.37,-7.09,8.46
4.874,0.33,-5.68,-7.36,9.30
4.884,-0.78,-6.01,-3.85,7.18
4.894,-2.13,-5.48,0.96,5.96
4.904,-3.14,-5.22,3.84,7.20
4.914,-3.47,-6.56,4.46,8.66
4.924,-4.34,-8.35,4.48,10.42
4.934,-5.95,-10.59,3.83,12.73
4.944,-7.57,-11.13,2.87,13.77
4.955,-8.25,-7.93,2.13,11.64
4.965,-6.57,-3.31,1.78,7.57
4.975,-4.06,0.17,2.14,4.59
4.985,-2.14,2.09,3.36,4.50
4.995,-0.47,2.89,3.85,4.84
5.005,0.56,2.44,3.58,4.37
5.015,1.01,1.46,3.39,3.83
5.025,0.91,0.28,2.98,3.13
5.035,0.78,-0.57,2.86,3.02
5.045,0.53,-1.10,2.96,3.20
5.055,-0.27,-1.37,3.61,3.87
5.065,-0.71,-1.16,3.81,4.04
5.075,-0.85,-0.28,0.20,0.92
5.085,-2.15,0.58,-0.04,2.22
5.095,-2.89,2.10,0.24,3.58
5.106,-2.79,3.39,0.78,4.45
5.116,-2.94,4.46,2.07,5.73
5.126,-2.98,5.12,3.10,6.68
5.136,-2.92,5.41,3.56,7.10
5.146,-2.74,5.42,3.47,7.00
5.156,-2.49,5.26,3.08,6.59
5.166,-2.02,5.04,2.74,6.08
5.176,-1.46,4.72,2.52,5.54
5.186,-0.95,4.18,2.22,4.83
5.196,-0.45,3.50,1.89,4.00
5.206,0.05,2.68,1.57,3.11
5.216,0.76,1.93,1.19,2.39
5.226,1.55,1.39,0.69,2.20
5.236,2.39,1.13,0.17,2.65
5.246,3.26,1.13,-0.50,3.49
5.257,4.08,1.25,-1.68,4.59
5.267,4.92,0.94,-3.71,6.23
5.277,5.20,0.13,-5.85,7.83
5.287,4.97,-0.44,-6.51,8.20
5.297,4.32,-0.66,-6.16,7.55
5.307,2.79,-0.66,-6.12,6.76
5.317,0.87,-1.15,-6.73,6.88
5.327,-1.07,-2.23,-7.33,7.74
5.337,-2.82,-3.45,-7.98,9.14
5.347,-3.74,-3.91,-6.91,8.78
5.357,-4.46,-3.36,-4.27,7.03
5.367,-4.93,-1.89,0.16,5.28
5.377,-4.84,-0.80,3.13,5.82
5.387,-4.35,0.39,3.46,5.58
5.398,-3.29,2.21,3.30,5.16
5.408,-2.15,3.76,3.50,5.57
5.418,-1.27,3.72,3.80,5.47
5.428,-1.89,1.26,3.57,4.23
5.438,-3.90,-3.11,2.77,5.71
5.448,-4.63,-10.95,-2.82,12.22
5.458,-2.19,-14.51,-8.44,16.93
5.468,1.80,-14.27,-12.98,19.38
5.478,1.72,-10.16,-6.65,12.26
5.488,0.21,-5.25,0.95,5.34
5.498,-0.56,-2.44,2.73,3.70
5.508,-1.03,-1.65,3.21,3.76
5.518,-1.06,-1.90,3.31,3.96
5.529,-0.80,-2.12,3.55,4.22
5.539,-1.09,-2.65,4.06,4.97
5.549,-1.03,-2.69,4.37,5.23
5.559,-0.40,-2.13,4.46,4.96
5.569,0.34,-1.44,4.36,4.60
5.579,1.20,-0.51,4.02,4.23
5.589,1.96,0.57,3.49,4.04
5.599,2.48,1.83,2.98,4.29
5.609,2.92,3.11,1.92,4.68
5.619,3.20,3.84,0.15,5.00
5.629,3.32,3.59,-1.45,5.10
5.639,3.56,2.68,-2.10,4.93
5.649,3.36,1.63,-2.25,4.36
5.659,2.83,0.76,-2.28,3.71
5.669,2.26,0.05,-2.34,3.25
5.679,1.87,-0.55,-2.61,3.26
5.690,1.91,-0.57,-3.49,4.03
5.700,2.08,0.16,-4.55,5.00
5.710,1.89,1.11,-5.24,5.68
5.720,1.42,1.75,-5.29,5.75
5.730,1.03,1.97,-4.20,4.75
5.740,0.91,2.00,-2.54,3.36
5.750,0.97,2.01,-1.30,2.59
5.760,1.16,2.24,-0.75,2.64
5.770,1.37,2.65,-0.93,3.12
5.780,1.21,3.02,-1.56,3.61
5.790,0.60,3.01,-1.44,3.39
5.800,0.12,2.73,-0.73,2.83
5.810,0.03,2.27,-0.03,2.27
5.821,0.13,1.88,0.52,1.95
5.831,0.43,1.76,0.87,2.00
5.841,0.97,1.77,0.80,2.17
5.851,1.84,1.98,-0.34,2.72
5.861,3.18,2.10,-2.94,4.81
5.871,4.21,1.89,-4.70,6.59
5.881,4.01,1.56,-4.01,5.88
5.891,3.54,1.19,-3.55,5.15
5.901,3.00,0.89,-2.88,4.26
5.911,2.55,0.60,-1.90,3.23
5.921,2.33,0.07,-2.40,3.35
5.931,1.92,-0.82,-4.14,4.63
5.941,1.73,-1.76,-5.43,5.97
5.951,1.90,-2.95,-4.68,5.84
5.961,1.72,-4.10,-1.85,4.81
5.971,1.01,-5.29,1.09,5.49
5.982,0.02,-7.32,3.22,7.99
5.992,-1.67,-10.47,5.27,11.84
6.002,-3.80,-13.66,6.87,15.76
6.012,-5.47,-14.81,7.97,17.69
6.022,-7.24,-12.70,9.25,17.30
6.032,-7.78,-8.01,6.42,12.88
6.042,-5.69,-2.42,0.13,6.19
6.052,-4.08,1.36,-5.37,6.88
6.062,-4.06,3.33,-5.37,7.51
6.072,-3.44,4.25,-2.18,5.89
6.082,-2.74,4.17,0.23,4.99
6.092,-1.96,3.63,2.13,4.64
6.102,-1.17,2.41,2.82,3.89
6.113,-0.35,0.90,2.16,2.36
6.123,0.09,-0.58,1.26,1.38
6.133,0.03,-1.41,0.94,1.70
6.143,-0.17,-1.10,0.71,1.32
6.153,-1.12,0.08,0.78,1.37
6.163,-1.76,1.63,1.45,2.81
6.173,-1.45,2.56,2.72,4.01
6.183,-0.96,3.69,2.62,4.63
6.193,-1.21,4.88,2.43,5.58
6.203,-0.92,5.37,3.45,6.45
6.213,-1.12,5.83,4.11,7.22
6.223,-1.55,6.12,3.85,7.40
6.233,-0.83,6.08,3.74,7.18
6.244,0.22,5.90,4.14,7.21
6.254,0.81,5.73,4.35,7.24
6.264,1.03,5.51,4.04,6.91
6.274,1.05,5.54,3.64,6.71
6.284,0.81,5.42,3.14,6.32
6.294,0.72,4.83,2.39,5.44
6.304,0.83,3.91,1.63,4.31
6.314,0.82,2.63,0.78,2.86
6.324,0.99,0.94,-1.27,1.86
6.334,1.76,-0.98,-5.56,5.91
6.344,2.66,-3.00,-12.61,13.23
6.354,2.35,-3.93,-12.66,13.46
6.364,1.53,-3.73,-9.10,9.95
6.374,1.01,-3.53,-7.45,8.30
6.384,-0.01,-3.87,-7.05,8.05
6.395,-1.53,-4.54,-8.09,9.41
6.405,-2.55,-4.58,-8.69,10.15
6.415,-3.33,-3.06,-4.29,6.23
6.425,-3.54,-1.06,1.05,3.84
6.435,-3.60,-0.33,2.65,4.48
6.445,-3.45,0.30,3.37,4.83
6.455,-2.59,0.99,4.09,4.94
6.465,-0.19,1.46,6.03,6.20
6.475,-0.11,0.57,5.60,5.63
6.485,-2.36,-1.81,4.06,5.03
6.495,-3.65,-5.03,4.13,7.46
6.505,-5.27,-8.59,3.95,10.83
6.516,-6.86,-12.98,4.44,15.34
6.525,-5.09,-16.37,2.37,17.31
6.535,0.52,-12.26,-8.55,14.95
6.546,2.34,-6.29,-14.69,16.16
6.556,2.94,-3.34,-6.64,8.00
6.566,1.90,-2.63,-0.30,3.25
6.576,0.02,-1.88,1.89,2.67
6.586,-0.43,-0.74,2.62,2.75
6.596,-0.28,0.38,2.80,2.84
6.606,0.21,1.33,3.17,3.44
6.616,0.84,2.12,3.28,4.00
6.626,1.16,2.35,3.20,4.14
6.636,1.21,2.15,3.30,4.12
6.646,1.41,1.90,3.45,4.18
6.656,1.55,1.60,3.66,4.28
6.666,1.59,1.45,3.77,4.34
6.676,1.78,1.58,3.56,4.28
6.687,1.84,1.91,2.99,3.99
6.697,1.71,2.31,2.21,3.62
6.707,1.51,2.60,1.62,3.42
6.717,1.37,2.96,1.37,3.54
6.727,1.10,3.37,1.05,3.70
6.737,0.21,3.99,-1.11,4.15
6.747,-0.70,4.36,-4.73,6.47
6.757,-0.18,4.19,-5.83,7.18
6.767,0.91,3.79,-4.39,5.87
6.777,0.79,3.60,-3.57,5.13
6.787,0.09,3.31,-3.19,4.60
6.797,-0.08,2.86,-3.13,4.24
6.807,0.38,2.54,-3.05,3.98
6.817,1.12,2.29,-3.29,4.16
6.827,2.05,2.27,-3.15,4.40
6.838,2.85,2.38,-2.80,4.65
6.848,3.58,2.51,-2.28,4.93
6.858,4.09,2.40,-1.51,4.98
6.868,4.63,1.92,-1.28,5.18
6.878,5.83,0.64,-2.15,6.25
6.888,7.83,-1.48,-3.67,8.78
6.898,8.72,-3.14,-3.27,9.83
6.908,7.72,-4.29,-1.65,8.98
6.918,5.88,-5.82,-2.46,8.63
6.928,4.04,-7.73,-4.74,9.92
6.938,2.28,-8.62,-5.77,10.62
6.948,0.23,-7.79,-4.03,8.78
6.958,-1.63,-6.97,-1.73,7.37
6.969,-3.15,-7.30,-0.31,7.96
6.979,-4.64,-8.30,1.07,9.57
6.989,-6.25,-9.00,2.58,11.26
6.999,-7.97,-9.15,3.89,12.74
7.009,-9.28,-8.16,4.88,13.29
7.019,-9.25,-5.65,5.31,12.07
7.029,-7.83,-1.63,8.31,11.54
7.039,-5.33,2.13,8.81,10.52
7.049,-2.10,4.16,0.64,4.70
7.059,-1.03,5.21,-1.09,5.42
7.069,-0.66,4.58,-0.12,4.63
7.079,-0.23,2.95,1.10,3.16
7.089,-0.17,1.25,2.13,2.47
7.099,-0.31,0.28,2.60,2.63
7.110,-0.46,0.09,2.94,2.98
7.119,-0.98,0.66,3.17,3.39
7.130,-1.60,1.91,2.16,3.30
7.140,-2.13,3.07,0.79,3.82
7.150,-2.54,4.05,0.70,4.83
7.160,-2.39,4.97,1.09,5.62
7.170,-1.93,5.74,1.81,6.32
7.180,-1.80,6.42,2.28,7.05
7.190,-1.64,6.80,2.08,7.30
7.200,-0.73,6.80,2.30,7.21
7.210,0.25,6.47,2.51,6.95
7.220,1.83,5.96,2.48,6.71
7.230,1.74,5.79,1.91,6.34
7.240,0.47,5.39,0.63,5.45
7.251,0.50,4.67,-0.55,4.72
7.261,0.83,2.78,-2.95,4.14
7.271,1.89,-0.12,-8.23,8.45
7.282,3.88,-2.42,-11.23,12.13
7.291,5.14,-2.74,-8.59,10.38
7.301,6.23,-2.28,-7.60,10.09
7.311,6.51,-2.46,-8.72,11.16
7.321,4.31,-3.70,-8.65,10.35
7.331,0.38,-4.32,-5.37,6.90
7.341,-2.53,-3.36,0.34,4.22
7.351,-4.06,-4.01,2.17,6.11
7.361,-5.77,-5.09,2.40,8.06
7.371,-6.82,-5.56,2.87,9.25
7.381,-6.41,-4.93,3.68,8.88
7.392,-4.75,-3.49,4.78,7.59
7.402,-3.46,-2.59,5.23,6.79
7.412,-3.66,-3.71,4.85,7.12
7.422,-4.59,-5.98,4.10,8.58
7.432,-5.40,-8.17,3.68,10.46
7.442,-5.07,-9.82,3.24,11.52
7.452,-1.66,-7.23,0.28,7.42
7.462,-0.11,-3.87,-6.05,7.18
7.472,-0.85,-1.04,-11.69,11.77
7.482,-0.51,-0.93,-5.27,5.37
7.492,-0.31,-1.42,0.08,1.46
7.502,-0.44,-0.82,1.82,2.04
7.512,-0.16,0.14,2.73,2.73
7.522,-0.11,1.08,3.09,3.28
7.532,0.38,1.71,3.13,3.58
7.543,1.35,2.07,2.98,3.87
7.552,1.99,2.30,3.11,4.35
7.563,2.22,2.52,3.13,4.59
7.573,2.44,2.69,3.00,4.71
7.583,2.60,2.72,2.80,4.68
7.593,2.78,2.67,2.53,4.61
7.603,2.87,2.64,2.31,4.53
7.613,3.04,2.58,2.09,4.50
7.623,3.40,2.54,1.55,4.52
7.633,4.67,2.44,-1.42,5.45
7.643,5.51,2.79,-4.68,7.75
7.653,5.48,3.32,-4.30,7.71
7.663,4.61,3.90,-4.02,7.25
7.673,3.15,4.18,-6.28,8.18
7.683,1.39,3.67,-10.62,11.32
7.694,-0.00,2.76,-15.06,15.31
7.704,-0.53,2.09,-15.38,15.53
7.714,0.14,1.79,-8.35,8.54
7.724,1.20,2.16,-1.75,3.03
7.734,1.88,2.81,0.69,3.45
7.744,2.63,2.78,-0.14,3.83
7.754,3.24,1.45,-3.64,5.09
7.764,3.17,-0.46,-5.65,6.50
7.774,1.99,-2.57,-4.65,5.67
7.784,0.32,-4.94,-2.62,5.60
7.794,-1.34,-6.84,-0.03,6.97
7.804,-2.85,-9.17,1.90,9.79
7.815,-4.86,-12.53,2.74,13.71
7.825,-8.03,-15.76,3.93,18.12
7.835,-11.43,-17.43,8.05,22.35
7.845,-10.15,-12.50,5.65,17.06
7.855,-6.89,-4.57,1.94,8.49
7.865,-4.81,0.69,0.53,4.89
7.875,-3.05,4.17,-1.22,5.31
7.885,-1.97,6.14,-1.02,6.52
7.895,-1.28,7.07,-1.02,7.26
7.905,-1.03,6.81,-0.50,6.91
7.915,-0.29,5.60,0.15,5.61
7.925,0.28,3.98,0.20,3.99
7.935,-0.07,2.06,0.01,2.06
7.945,-0.86,1.50,1.70,2.43
7.955,-0.37,1.22,1.61,2.05
7.965,-0.16,0.85,1.36,1.61
7.976,-0.12,0.95,1.17,1.51
7.986,-0.35,1.75,1.21,2.16
7.996,-0.59,2.87,1.33,3.22
8.006,-0.60,3.93,1.55,4.27
8.016,-0.25,4.70,1.79,5.04
8.026,0.32,5.06,1.90,5.41
8.036,0.72,5.31,1.95,5.70
8.046,0.91,5.65,1.64,5.95
8.056,1.01,5.67,1.09,5.86
8.066,1.14,5.43,0.31,5.55
8.076,1.43,4.70,-0.82,4.98
8.086,3.15,2.57,-3.71,5.50
8.096,6.08,-0.15,-6.78,9.10
8.106,7.88,-1.84,-7.50,11.04
8.116,8.14,-3.39,-7.58,11.63
8.127,7.71,-4.39,-7.16,11.40
8.136,6.95,-4.38,-7.54,11.15
8.147,6.32,-4.70,-11.68,14.09
8.157,3.06,-5.28,-15.89,17.03
8.167,-1.23,-5.04,-15.87,16.69
8.177,-4.64,-2.91,-10.52,11.86
8.187,-6.02,0.65,5.01,7.86
8.197,-6.22,-0.29,5.99,8.63
8.207,-6.90,-1.81,6.77,9.84
8.217,-6.71,-3.34,6.31,9.80
8.227,-7.08,-5.70,5.67,10.71
8.237,-7.76,-8.02,6.20,12.76
8.248,-8.03,-9.92,6.80,14.46
8.258,-7.33,-10.31,7.32,14.61
8.268,-5.93,-9.76,7.29,13.55
8.278,-4.05,-7.16,6.55,10.52
8.288,-2.57,-3.38,4.18,5.96
8.298,-3.38,-2.26,3.92,5.65
8.308,-4.11,-1.76,3.67,5.79
8.318,-3.71,-1.84,3.01,5.12
8.328,-2.98,-1.44,2.31,4.03
8.338,-1.76,-0.57,1.11,2.16
8.348,-1.03,-0.00,0.74,1.27
8.358,-0.79,0.02,0.93,1.22
8.368,-0.62,0.08,1.21,1.36
8.378,-0.66,0.35,1.33,1.53
8.388,-0.45,0.76,1.18,1.47
8.398,0.12,1.46,0.93,1.74
8.409,0.79,2.31,0.60,2.51
8.419,1.41,3.20,0.14,3.49
8.429,1.74,3.85,-0.56,4.27
8.439,1.61,4.21,-1.39,4.72
8.449,1.08,4.04,-2.08,4.67
8.459,0.45,3.41,-2.27,4.12
8.469,-0.12,2.48,-1.81,3.07
8.479,-0.59,1.57,-1.27,2.11
8.489,-0.73,1.07,-0.88,1.56
8.499,-0.53,0.87,-0.88,1.35
8.509,-0.14,0.74,-1.09,1.33
8.519,0.16,0.31,-1.33,1.38
8.529,0.37,-0.21,-1.53,1.59
8.539,0.48,-0.68,-1.75,1.93
8.550,0.58,-1.01,-1.91,2.23
8.560,0.83,-1.19,-2.03,2.50
8.570,1.20,-1.42,-2.17,2.86
8.580,1.70,-2.02,-1.72,3.15
8.590,1.65,-2.24,-1.89,3.36
8.600,1.59,-2.42,-2.38,3.75
8.610,2.48,-3.23,-3.88,5.63
8.620,3.22,-3.16,-5.10,6.80
8.630,2.77,-1.77,-4.40,5.49
8.640,1.74,-1.53,-3.30,4.03
8.650,0.90,-2.17,-2.74,3.61
8.660,0.59,-2.75,-2.58,3.81
8.670,0.71,-3.24,-2.82,4.35
8.680,1.01,-3.52,-3.56,5.10
8.691,1.47,-3.62,-4.82,6.20
8.701,1.76,-3.78,-5.76,7.12
8.711,1.41,-4.21,-6.25,7.67
8.721,0.39,-4.84,-6.69,8.27
8.731,-1.27,-4.80,-7.76,9.21
8.741,-2.60,-3.57,-9.01,10.03
8.751,-3.22,-1.32,-7.63,8.38
8.761,-3.96,0.26,-4.32,5.86
8.771,-4.25,0.71,-0.25,4.32
8.781,-4.69,0.77,4.27,6.39
8.791,-4.62,0.48,6.74,8.19
8.801,-4.49,-0.15,7.58,8.81
8.811,-4.18,-0.48,7.99,9.04
8.821,-4.51,-1.17,7.59,8.90
8.832,-4.39,-2.25,5.30,7.24
8.842,-3.56,-3.59,1.55,5.29
8.852,-2.28,-4.03,-2.24,5.14
8.862,-1.50,-2.65,-4.32,5.28
8.872,-1.77,-1.45,-2.51,3.40
8.882,-2.42,-0.33,-0.10,2.45
8.892,-2.49,1.09,0.86,2.86
8.902,-2.09,2.51,1.52,3.60
8.913,-2.20,3.61,2.09,4.71
8.922,-2.14,4.49,2.54,5.58
8.932,-2.08,4.92,2.84,6.05
8.942,-2.22,5.24,3.08,6.47
8.952,-2.15,5.28,3.30,6.59
8.962,-1.89,5.35,3.22,6.52
8.972,-1.57,5.39,2.88,6.31
8.983,-1.40,5.23,2.58,6.00
8.993,-1.46,4.68,2.27,5.40
9.003,-1.77,4.17,1.95,4.94
9.013,-2.04,3.81,1.68,4.63
9.023,-2.02,3.54,1.56,4.36
9.033,-1.96,3.36,1.67,4.23
9.043,-1.89,3.15,1.89,4.13
9.053,-1.73,2.96,2.08,4.01
9.063,-1.35,2.75,2.13,3.73
9.073,-0.88,2.45,1.90,3.22
9.083,-0.59,2.00,1.55,2.60
9.093,-0.22,1.50,1.11,1.88
9.103,0.11,1.00,0.61,1.18
9.113,0.41,0.51,0.13,0.67
9.123,0.76,0.09,-0.23,0.80
9.134,1.04,-0.24,-0.38,1.13
9.144,1.39,-0.58,-0.46,1.58
9.154,2.08,-1.02,-0.67,2.41
9.164,3.22,-1.86,-1.24,3.92
9.174,4.79,-3.53,-3.42,6.86
9.184,6.17,-6.04,-6.08,10.56
9.194,5.82,-7.63,-5.90,11.27
9.204,6.44,-8.37,-9.30,14.07
9.214,7.85,-9.41,-15.92,20.09
9.224,7.14,-9.08,-16.94,20.51
9.234,4.07,-5.42,-13.99,15.54
9.244,0.78,-0.76,-10.54,10.60
9.255,-1.70,0.41,-6.54,6.77
9.265,-3.92,-0.79,-2.25,4.59
9.275,-5.37,-2.22,0.83,5.87
9.285,-6.00,-3.34,2.20,7.21
9.295,-5.35,-4.06,2.71,7.24
9.305,-4.74,-3.78,3.32,6.92
9.315,-4.28,-2.38,6.88,8.45
9.325,-3.45,-0.85,4.59,5.80
9.335,-2.46,0.84,2.99,3.97
9.345,-1.70,2.45,3.68,4.74
9.355,-1.09,3.72,3.37,5.14
9.365,-0.63,4.73,2.83,5.55
9.375,-0.47,5.27,2.72,5.96
9.385,-0.64,4.75,2.68,5.49
9.395,-1.49,3.04,2.69,4.32
9.406,-2.36,1.23,2.65,3.76
9.415,-3.03,-0.35,2.62,4.02
9.426,-3.63,-1.62,2.79,4.86
9.436,-4.05,-2.28,3.06,5.56
9.446,-3.98,-2.26,3.21,5.59
9.456,-3.45,-1.52,3.26,4.98
9.466,-2.86,-0.40,3.05,4.20
9.476,-2.24,0.60,2.58,3.47
9.486,-1.66,1.45,2.07,3.02
9.496,-1.13,2.13,1.65,2.93
9.506,-0.52,2.63,1.35,3.00
9.516,-0.14,2.93,1.03,3.11
9.526,0.01,2.96,0.76,3.05
9.536,0.06,2.59,0.54,2.64
9.547,0.07,1.94,0.35,1.97
9.557,0.08,1.22,0.17,1.23
9.567,-0.04,0.44,0.08,0.45
9.577,-0.19,-0.33,0.09,0.39
9.587,-0.34,-1.06,0.15,1.12
9.597,-0.46,-1.67,0.27,1.75
9.607,-0.37,-2.09,0.51,2.18
9.617,0.03,-2.16,0.75,2.29
9.627,0.72,-1.77,0.73,2.05
9.637,1.39,-1.09,0.23,1.78
9.647,1.82,-0.73,-0.53,2.03
9.657,1.82,-0.42,-1.09,2.16
9.667,1.56,-0.15,-1.48,2.16
9.677,1.35,-0.04,-1.77,2.23
9.687,1.34,-0.00,-2.07,2.47
9.697,1.55,-0.10,-2.29,2.77
9.708,1.85,-0.19,-2.21,2.89
9.718,1.94,-0.26,-1.98,2.78
9.728,1.87,-0.30,-1.77,2.59
9.738,1.84,-0.25,-1.67,2.50
9.748,1.83,-0.16,-1.77,2.55
9.758,1.81,-0.17,-2.05,2.74
9.768,1.73,-0.25,-2.34,2.92
9.778,1.58,-0.40,-2.49,2.97
9.788,1.46,-0.51,-2.53,2.96
9.798,1.38,-0.55,-2.54,2.95
9.808,1.23,-0.63,-2.45,2.81
9.818,0.88,-0.83,-2.33,2.62
9.828,0.45,-1.12,-2.31,2.61
9.839,0.26,-1.51,-2.38,2.82
9.849,0.37,-1.98,-2.47,3.19
9.859,0.50,-2.63,-2.60,3.73
9.869,0.55,-3.54,-3.48,4.99
9.879,0.46,-4.64,-4.82,6.71
9.889,0.29,-5.38,-5.03,7.37
9.899,-0.02,-5.71,-4.25,7.11
9.909,-0.59,-5.93,-3.68,7.01
9.919,-1.26,-5.21,-3.93,6.64
9.929,-2.05,-3.16,-5.35,6.54
9.939,-2.07,-1.09,-6.59,6.99
9.949,-1.71,0.44,-6.51,6.74
9.959,-1.56,1.52,-4.81,5.28
9.969,-1.89,2.18,-2.45,3.78
9.979,-2.96,2.23,-0.00,3.71
9.990,-3.87,1.82,2.07,4.75
10.000,-4.33,1.26,3.76,5.87
10.010,-4.41,0.44,4.70,6.46
10.020,-4.79,-0.44,5.57,7.36
10.030,-4.81,-1.48,5.42,7.39
10.040,-4.91,-2.45,4.56,7.14
10.050,-5.12,-3.08,4.18,7.29
10.060,-4.29,-2.96,3.78,6.44
10.070,-2.94,-2.25,3.00,4.77
10.080,-1.65,-1.41,1.32,2.54
10.090,-0.23,-0.42,-0.29,0.56
10.100,0.67,0.80,-0.22,1.07
10.110,0.72,1.79,0.27,1.95
10.120,0.07,2.35,0.53,2.41
10.130,-0.96,2.91,0.99,3.22
10.141,-1.75,3.22,1.62,4.01
10.151,-2.33,3.46,2.34,4.79
10.162,-2.56,3.75,2.50,5.19
10.171,-2.47,4.05,2.12,5.19
10.181,-2.53,4.20,1.85,5.24
10.191,-2.66,4.22,1.99,5.37
10.201,-2.84,4.14,2.43,5.58
10.211,-3.08,4.01,2.85,5.81
10.221,-3.15,3.96,3.06,5.91
10.231,-2.99,3.93,2.97,5.76
10.241,-2.70,3.83,2.69,5.41
10.251,-2.34,3.75,2.31,4.99
10.261,-1.89,3.72,1.92,4.59
10.271,-1.34,3.75,1.56,4.28
10.282,-0.69,3.81,1.34,4.09
10.292,-0.12,3.95,1.31,4.16
10.302,0.58,3.98,1.39,4.25
10.312,1.27,4.01,1.51,4.47
10.322,2.01,3.88,1.48,4.62
10.332,2.65,3.61,1.27,4.65
10.342,3.05,3.23,0.76,4.50
10.352,3.30,2.69,0.01,4.25
10.362,3.41,2.04,-0.87,4.07
10.372,3.39,1.42,-1.65,4.03
10.382,3.35,0.75,-2.23,4.09
10.392,3.21,0.23,-2.57,4.12
10.402,3.13,-0.14,-2.77,4.18
10.412,2.95,-0.25,-2.98,4.20
10.423,2.30,-0.10,-3.20,3.94
10.433,1.30,-0.07,-3.22,3.47
10.443,0.42,-0.04,-3.24,3.26
10.453,-0.23,0.09,-3.19,3.20
10.463,-0.75,0.34,-3.11,3.22
10.473,-1.28,0.63,-3.25,3.55
10.483,-1.72,0.91,-3.48,3.99
10.493,-1.96,1.11,-3.89,4.49
10.503,-2.29,1.03,-4.51,5.16
10.513,-2.39,0.29,-4.20,4.84
10.523,-2.27,-1.17,-3.77,4.55
10.533,-2.03,-2.98,-3.23,4.84
10.543,-1.58,-4.24,-1.55,4.78
10.553,-1.83,-5.06,0.15,5.38
10.563,-1.80,-4.73,2.44,5.62
10.574,-1.28,-3.95,4.21,5.91
10.584,-1.08,-3.59,4.40,5.78
10.594,-2.26,-4.79,2.52,5.86
10.604,-2.05,-10.12,-3.11,10.78
10.614,0.94,-11.62,-3.01,12.04
10.624,1.60,-7.59,0.29,7.76
10.634,1.11,-4.94,0.80,5.13
10.644,1.28,-3.63,0.20,3.85
10.654,1.61,-1.42,-0.34,2.17
10.664,1.01,0.06,0.15,1.02
10.674,-0.15,-0.63,1.10,1.28
10.684,-1.54,-1.62,2.18,3.12
10.694,-2.40,-2.21,3.04,4.46
10.704,-2.40,-2.36,3.80,5.08
10.715,-2.36,-2.40,4.54,5.65
10.725,-1.99,-2.28,4.91,5.77
10.735,-1.39,-1.80,5.21,5.68
10.745,-0.78,-0.98,5.37,5.51
10.755,-0.14,0.18,5.34,5.34
10.765,0.33,1.69,4.96,5.25
10.775,0.47,3.01,4.31,5.28
10.785,0.04,3.68,3.77,5.27
10.795,-0.67,3.63,3.12,4.83
10.805,-1.41,3.12,2.43,4.20
10.815,-1.96,2.60,1.31,3.51
10.825,-2.09,1.95,-0.89,2.99
10.835,-1.70,1.24,-3.25,3.87
10.845,-0.99,1.04,-3.70,3.97
10.855,-0.62,1.28,-2.90,3.23
10.866,-0.65,1.44,-2.09,2.61
10.876,-0.63,1.28,-1.73,2.24
10.886,-0.39,0.73,-2.14,2.29
10.896,0.16,0.10,-2.78,2.78
10.906,0.89,-0.32,-3.11,3.25
10.916,1.63,-0.40,-3.03,3.47
10.926,1.98,-0.39,-2.82,3.47
10.936,2.05,-0.26,-2.75,3.43
10.946,2.16,0.14,-2.77,3.51
10.956,2.33,0.56,-2.21,3.26
10.966,2.40,0.79,-1.22,2.80
10.976,2.34,0.85,-0.41,2.52
10.987,2.03,0.97,0.16,2.25
10.997,1.55,1.17,0.62,2.04
11.007,1.12,1.41,0.81,1.97
11.017,0.91,1.75,0.75,2.11
11.027,0.58,2.01,0.65,2.19
11.037,0.25,2.11,0.69,2.24
11.047,0.11,2.17,0.75,2.30
11.057,0.18,2.29,0.82,2.44
11.067,0.38,2.53,0.80,2.68
11.077,0.80,2.85,0.52,3.00
11.087,1.42,3.10,0.05,3.41
11.097,2.00,2.91,-0.12,3.54
11.107,2.26,2.50,0.23,3.38
11.117,2.12,2.01,0.61,2.99
11.127,1.75,1.41,0.71,2.36
11.137,1.56,0.76,0.41,1.78
11.147,1.86,0.10,-0.55,1.95
11.158,2.48,-0.41,-1.89,3.14
11.168,3.23,-0.91,-3.47,4.83
11.178,3.93,-1.46,-5.07,6.58
11.188,4.17,-2.35,-6.88,8.38
11.198,3.96,-3.42,-8.99,10.40
11.208,3.43,-4.26,-9.84,11.26
11.218,2.64,-4.65,-9.44,10.85
11.228,1.30,-4.42,-6.87,8.27
11.238,-0.08,-3.72,-2.68,4.58
11.248,-1.14,-3.39,0.87,3.68
11.258,-1.92,-4.56,3.11,5.85
11.268,-4.35,-7.21,9.16,12.44
11.278,-6.20,-10.20,11.22,16.38
11.289,-5.71,-13.01,3.32,14.59
11.299,-7.86,-13.16,2.02,15.46
11.309,-5.97,-8.68,-2.14,10.75
11.319,-4.06,-3.24,-2.06,5.59
11.329,-3.01,-0.42,1.89,3.58
11.339,-1.96,1.39,4.47,5.07
11.349,-1.23,2.91,5.75,6.56
11.359,-0.57,4.00,5.10,6.51
11.369,-0.23,3.95,3.81,5.49
11.379,0.10,3.04,2.57,3.99
11.389,-0.12,1.76,1.65,2.42
11.399,-0.80,0.82,1.36,1.78
11.409,-1.27,0.66,1.38,1.99
11.420,-1.70,1.18,1.45,2.53
11.430,-2.34,1.77,1.55,3.31
11.440,-2.79,2.40,1.90,4.14
11.450,-2.89,3.12,2.36,4.86
11.460,-2.89,3.87,2.74,5.55
11.470,-2.87,4.56,3.07,6.20
11.480,-2.73,5.18,3.33,6.73
11.490,-2.55,5.76,3.36,7.15
11.500,-2.31,6.31,3.22,7.45
11.510,-1.95,6.64,3.03,7.56
11.520,-1.41,6.61,2.99,7.39
11.530,-0.85,6.25,3.03,7.00
11.540,-0.39,5.70,2.94,6.43
11.550,0.04,5.04,2.55,5.65
11.560,0.40,4.26,2.12,4.77
11.570,0.73,3.53,1.62,3.95
11.581,1.02,2.78,0.86,3.09
11.591,1.54,1.62,-0.81,2.38
11.601,2.70,-0.28,-4.39,5.16
11.611,4.93,-2.76,-9.21,10.81
11.621,6.19,-4.52,-9.99,12.59
11.631,5.41,-5.30,-7.86,10.91
11.641,3.43,-5.24,-5.91,8.61
11.651,1.65,-4.52,-4.86,6.84
11.661,0.82,-2.88,-4.39,5.32
11.671,-0.05,-1.08,-4.26,4.40
11.681,-1.39,-0.08,-4.77,4.97
11.691,-3.05,-0.18,-5.85,6.60
11.701,-4.06,-0.78,-5.70,7.04
11.712,-3.92,-1.26,-3.23,5.24
11.721,-3.56,-1.58,-0.41,3.91
11.732,-2.78,-1.57,1.45,3.51
11.742,-2.00,-1.07,2.10,3.09
11.752,-1.23,-0.07,2.20,2.52
11.762,-0.12,1.14,2.38,2.64
11.772,0.65,1.69,2.82,3.35
11.782,0.10,0.34,3.45,3.47
11.792,-1.55,-3.01,3.88,5.15
11.802,-3.08,-9.40,3.37,10.45
11.813,-2.49,-17.75,-3.59,18.28
11.822,-1.40,-19.00,-10.57,21.79
11.832,-2.17,-13.29,-10.10,16.83
11.842,-2.06,-7.26,-5.21,9.17
11.852,-3.20,-3.13,-0.21,4.48
11.863,-2.55,-0.91,1.85,3.28
11.873,-1.20,-0.18,2.14,2.46
11.883,-0.46,1.27,2.35,2.71
11.893,0.17,2.55,2.91,3.87
11.903,0.53,3.32,3.37,4.76
11.913,-0.02,3.39,4.07,5.30
11.923,-1.05,3.03,5.44,6.32
11.933,-1.29,2.51,6.10,6.72
11.943,-0.85,2.05,6.21,6.60
11.953,-0.23,1.88,6.22,6.51
11.963,0.46,1.77,6.04,6.31
11.973,1.03,1.77,5.61,5.97
11.983,1.33,1.93,4.71,5.26
11.993,1.32,2.29,3.61,4.47
12.004,1.21,2.63,2.69,3.95
12.014,1.19,2.82,2.01,3.66
12.024,1.26,2.93,1.53,3.54
12.034,1.36,3.04,1.17,3.53
12.044,1.49,3.11,0.94,3.57
12.054,1.49,3.10,0.48,3.48
12.064,0.74,2.21,-6.94,7.32
12.074,0.74,1.58,-14.85,14.96
12.084,2.61,0.92,-10.98,11.32
12.094,3.58,1.13,-5.37,6.55
12.104,3.10,1.21,-2.67,4.26
12.114,2.05,0.96,-1.35,2.64
12.124,1.20,1.36,-0.43,1.87
12.134,0.92,1.92,0.07,2.13
12.145,1.32,2.36,-0.23,2.71
12.155,2.36,2.79,-0.84,3.75
12.165,3.31,3.18,-0.92,4.68
12.175,4.03,3.29,-0.43,5.22
12.185,4.62,3.00,-0.64,5.54
12.195,5.68,1.75,-2.63,6.50
12.205,7.26,-0.54,-6.14,9.52
12.215,7.72,-2.92,-8.16,11.61
12.225,6.30,-4.71,-7.96,11.19
12.235,3.83,-5.64,-6.93,9.72
12.245,0.72,-5.57,-4.37,7.11
12.255,-1.96,-4.69,-1.92,5.43
12.265,-3.27,-4.08,0.18,5.23
12.275,-3.66,-4.84,1.37,6.22
12.286,-4.07,-7.60,1.31,8.72
12.296,-5.34,-11.39,1.41,12.66
12.306,-7.35,-14.44,3.06,16.49
12.316,-9.74,-15.46,8.54,20.17
12.326,-10.01,-12.04,11.91,19.67
12.336,-7.49,-5.17,7.57,11.84
12.346,-5.63,0.10,1.78,5.91
12.356,-4.68,3.75,0.79,6.05
12.366,-3.18,6.07,0.45,6.87
12.376,-1.35,7.48,0.04,7.60
12.386,0.59,7.65,0.80,7.71
12.396,1.48,6.98,2.48,7.55
12.406,1.29,6.03,3.80,7.24
12.416,1.05,5.25,4.23,6.82
12.427,0.81,4.55,4.04,6.14
12.437,0.36,3.77,3.63,5.25
12.447,-0.29,3.04,3.13,4.37
12.457,-0.59,2.57,2.64,3.73
12.467,-0.72,2.45,2.21,3.38
12.477,-1.24,2.40,2.04,3.38
12.487,-2.27,2.41,2.36,4.06
12.497,-2.91,2.30,3.18,4.88
12.507,-2.84,1.90,4.01,5.27
12.517,-2.23,1.43,4.14,4.92
12.527,-1.43,1.32,3.52,4.02
12.537,-0.81,1.86,2.06,2.89
12.547,-0.80,3.06,-1.03,3.33
12.557,-1.66,4.15,-7.67,8.88
12.567,-0.18,2.28,-10.45,10.69
12.578,2.13,-0.32,-9.34,9.59
12.588,3.40,-1.91,-8.30,9.17
12.598,4.51,-3.02,-8.31,9.92
12.608,5.34,-3.83,-8.17,10.48
12.618,4.95,-4.42,-6.36,9.19
12.628,2.81,-4.08,-3.19,5.89
12.638,-0.54,-2.07,0.84,2.30
12.648,-2.42,0.08,2.39,3.40
12.658,-3.35,1.15,2.35,4.25
12.668,-4.01,0.99,2.37,4.76
12.678,-3.80,-0.29,2.58,4.60
12.688,-3.17,-2.08,2.79,4.71
12.698,-3.74,-4.68,2.97,6.69
12.709,-5.13,-8.06,3.38,10.14
12.719,-5.96,-12.29,2.65,13.91
12.729,-2.31,-17.70,-5.41,18.65
12.739,1.91,-12.46,-11.99,17.40
12.749,1.77,-6.78,-8.62,11.11
12.759,-0.74,-4.35,-1.93,4.82
12.769,-2.98,-2.96,1.18,4.37
12.779,-2.44,-1.49,1.49,3.22
12.789,-1.40,0.69,1.45,2.13
12.799,-0.57,2.79,1.65,3.29
12.809,0.23,4.25,1.96,4.69
12.819,0.70,4.82,2.19,5.34
12.829,0.87,4.68,2.41,5.34
12.839,0.96,4.20,2.58,5.02
12.849,1.22,3.60,2.77,4.70
12.860,1.44,3.09,3.29,4.74
12.870,1.51,2.66,3.90,4.95
12.880,1.71,2.40,4.30,5.21
12.890,2.26,2.38,4.35,5.45
12.900,2.91,2.43,4.05,5.55
12.910,3.32,2.21,3.25,5.14
12.920,3.17,1.71,2.06,4.15
12.930,2.55,1.73,0.27,3.09
12.940,2.03,1.96,-1.15,3.05
12.950,1.75,2.05,-1.73,3.20
12.960,1.39,2.40,-2.25,3.57
12.970,0.89,3.01,-2.84,4.23
12.980,0.52,3.43,-2.93,4.54
12.990,0.27,3.75,-2.89,4.74
13.000,-0.11,3.78,-3.21,4.96
13.011,-0.19,3.22,-3.53,4.78
13.021,0.29,2.33,-3.73,4.41
13.031,1.55,1.23,-4.30,4.73
13.041,3.46,0.02,-7.07,7.87
13.051,6.12,-1.51,-12.48,13.98
13.061,7.66,-2.88,-14.10,16.30
13.071,7.22,-3.28,-9.18,12.13
13.081,6.14,-3.29,-3.56,7.82
13.091,3.34,-4.27,-1.69,5.67
13.101,0.14,-5.36,-1.49,5.56
13.111,-2.41,-6.26,-0.17,6.71
13.121,-4.58,-7.10,2.35,8.77
13.131,-5.68,-8.26,5.28,11.33
13.141,-5.68,-10.03,6.26,13.12
13.152,-6.06,-11.46,5.49,14.08
13.162,-7.11,-11.04,5.39,14.19
13.172,-7.88,-8.41,5.58,12.80
13.182,-6.94,-4.37,5.19,9.70
13.192,-5.92,-0.41,4.13,7.23
13.202,-5.18,2.63,4.13,7.13
13.212,-4.22,4.55,3.97,7.37
13.222,-3.73,5.46,4.57,8.03
13.232,-3.53,6.31,5.54,9.11
13.242,-2.90,6.59,6.05,9.40
13.252,-1.99,6.26,5.87,8.81
13.262,-1.12,5.67,5.21,7.78
13.272,-0.36,4.94,4.52,6.71
13.282,0.07,4.42,4.33,6.19
13.292,0.08,4.24,4.21,5.97
13.303,-0.22,4.09,3.76,5.56
13.313,-0.23,3.87,3.04,4.92
13.323,-0.16,3.74,2.34,4.41
13.333,0.21,3.57,1.55,3.89
13.343,0.66,3.43,0.73,3.57
13.353,1.46,3.74,-0.64,4.07
13.363,2.24,4.13,-4.68,6.63
13.373,3.84,1.74,-11.41,12.16
13.383,5.28,-0.77,-12.44,13.53
13.393,6.27,-0.90,-11.54,13.16
13.403,7.76,-0.55,-9.41,12.21
13.413,7.87,-1.00,-4.05,8.91
13.423,4.53,-1.79,-1.34,5.05
13.433,0.77,-1.93,0.59,2.16
13.444,-1.92,-2.43,1.33,3.37
13.454,-4.68,-4.07,0.66,6.24
13.464,-7.00,-6.26,1.32,9.49
13.474,-8.07,-9.69,2.90,12.94
13.484,-8.24,-13.80,2.51,16.27
13.494,-5.94,-20.27,-6.46,22.09
13.504,-1.88,-19.50,-6.65,20.69
13.514,0.75,-11.38,-0.72,11.43
13.524,-1.56,-6.24,2.46,6.89
13.534,-3.05,-3.50,3.39,5.75
13.544,-3.43,-1.59,3.84,5.39
13.554,-2.79,-0.23,3.66,4.61
13.564,-1.75,1.19,3.42,4.03
13.574,-1.36,2.32,3.94,4.77
13.585,-1.34,2.97,4.48,5.54
13.595,-0.92,3.32,4.89,5.99
13.605,-0.63,3.31,5.43,6.39
13.615,-0.38,2.95,5.73,6.45
13.625,0.07,2.39,5.57,6.06
13.635,0.66,2.06,4.81,5.28
13.645,1.14,1.91,3.81,4.41
13.655,1.62,1.81,2.96,3.83
13.665,2.32,1.96,1.72,3.49
13.675,3.48,2.52,-3.59,5.60
13.685,4.33,3.10,-15.30,16.20
13.695,4.09,2.83,-14.86,15.67
13.705,4.01,2.76,-7.46,8.91
13.715,2.65,2.49,-2.98,4.70
13.726,0.57,2.20,-1.30,2.62
13.736,-0.80,2.21,-0.58,2.42
13.746,-1.14,2.57,-0.07,2.81
13.756,0.14,3.15,-0.25,3.17
13.766,1.06,3.60,-0.34,3.77
13.776,1.75,3.96,-0.02,4.33
13.786,2.54,4.25,0.34,4.96
13.796,3.24,3.85,-0.20,5.03
13.806,4.14,2.80,-0.63,5.04
13.816,4.85,1.49,-1.47,5.28
13.826,5.18,-0.11,-2.89,5.93
13.836,5.10,-1.99,-4.89,7.35
13.846,4.75,-3.99,-6.18,8.76
13.856,3.89,-5.72,-6.88,9.76
13.866,2.30,-7.03,-6.90,10.11
13.876,0.12,-7.49,-5.37,9.22
13.886,-2.23,-7.38,-2.27,8.04
13.897,-3.82,-7.75,1.23,8.73
13.907,-5.01,-8.66,3.85,10.72
13.917,-6.47,-9.55,5.40,12.74
13.927,-8.09,-9.71,5.67,13.85
13.937,-9.79,-8.62,9.43,16.09
13.947,-8.71,-4.90,5.94,11.63
13.957,-6.78,-0.80,-1.83,7.07
13.967,-6.74,1.93,-0.36,7.02
13.977,-5.83,3.47,0.61,6.82
13.987,-4.37,4.22,1.51,6.26
13.997,-2.44,4.08,2.33,5.30
14.007,-0.83,2.90,3.05,4.29
14.017,-0.13,1.20,3.90,4.08
14.028,0.28,0.01,4.26,4.27
14.038,0.46,-0.35,4.07,4.11
14.048,0.23,-0.19,3.79,3.80
14.058,-0.77,0.28,3.33,3.43
14.068,-1.95,0.77,2.46,3.23
14.078,-2.86,1.37,1.66,3.58
14.088,-3.34,2.04,1.17,4.08
14.098,-3.30,2.83,0.92,4.45
14.108,-2.99,3.63,1.15,4.84
14.118,-2.59,4.47,1.65,5.42
14.128,-2.13,5.19,1.93,5.93
14.138,-1.60,5.76,2.17,6.36
14.148,-0.93,6.00,2.28,6.49
14.159,-0.25,6.06,2.35,6.50
14.169,0.29,5.96,2.40,6.43
14.179,0.80,5.78,2.10,6.20
14.189,1.16,5.40,1.48,5.72
14.199,1.43,5.01,0.30,5.22
14.209,1.03,3.61,-1.75,4.14
14.219,2.71,2.35,-5.93,6.93
14.229,3.27,-0.61,-8.85,9.46
14.239,4.17,-2.60,-8.13,9.50
14.249,5.09,-3.86,-6.50,9.11
14.259,5.04,-4.11,-4.95,8.17
14.269,4.78,-3.30,-4.73,7.49
14.279,4.20,-2.41,-5.26,7.15
14.289,3.01,-2.07,-5.99,7.01
14.299,0.29,-3.02,-5.46,6.25
14.310,-2.74,-3.70,-4.34,6.33
14.320,-5.78,-3.77,-1.56,7.08
14.330,-7.70,-3.60,1.28,8.60
14.340,-8.04,-3.27,1.93,8.89
14.350,-6.96,-2.43,2.12,7.67
14.360,-4.61,-1.09,2.19,5.21
14.370,-2.73,-0.42,2.43,3.68
14.380,-1.97,-0.36,2.65,3.32
14.390,-1.47,-0.93,2.61,3.14
14.400,-0.74,-1.46,2.68,3.14
14.410,-2.48,-4.08,3.79,6.10
14.420,-4.26,-8.13,2.80,9.60
14.431,-4.12,-12.83,-1.14,13.52
14.440,-0.73,-11.69,-4.24,12.46
14.451,2.01,-7.88,-5.48,9.81
14.461,2.66,-4.26,-3.24,5.98
14.471,1.51,-1.92,0.02,2.44
14.481,0.30,-0.89,2.01,2.22
14.491,-0.10,-0.46,2.47,2.52
14.501,-0.16,0.01,2.80,2.80
14.511,0.20,0.50,3.07,3.12
14.521,0.86,1.06,3.39,3.66
14.531,1.11,1.35,3.78,4.16
14.541,-0.03,0.18,3.75,3.75
14.551,-0.04,-0.32,3.82,3.84
14.561,1.19,0.50,3.37,3.60
14.571,1.66,1.01,2.69,3.32
14.581,1.73,1.27,2.22,3.09
14.591,1.68,1.57,1.85,2.95
14.602,1.71,1.68,1.48,2.82
14.612,1.63,1.95,1.34,2.87
14.622,1.62,2.09,0.96,2.82
14.632,1.88,2.43,0.72,3.15
14.642,2.28,2.72,0.29,3.56
14.652,2.54,2.77,-0.38,3.78
14.662,2.51,2.69,-1.99,4.18
14.672,1.53,2.37,-4.48,5.30
14.682,0.49,2.17,-5.10,5.57
14.692,0.06,1.91,-3.87,4.32
14.702,-0.14,1.59,-2.51,2.97
14.712,-0.71,1.11,-2.01,2.40
14.722,-1.31,0.68,-2.05,2.53
14.732,-1.48,0.62,-2.21,2.73
14.743,-0.88,1.13,-2.34,2.75
14.753,0.08,2.13,-2.26,3.11
14.763,0.95,2.93,-1.94,3.64
14.773,1.54,3.36,-1.52,4.00
14.783,1.85,3.51,-1.10,4.11
14.793,1.78,3.32,-0.68,3.83
14.803,1.50,2.87,-0.20,3.25
14.813,1.24,2.47,0.26,2.77
14.823,1.12,2.16,0.69,2.53
14.833,1.15,1.68,1.01,2.28
14.843,1.29,1.06,1.30,2.12
14.853,1.38,0.46,1.29,1.94
14.863,1.44,-0.02,1.02,1.76
14.873,1.60,-0.84,0.40,1.85
14.883,2.18,-2.26,-1.15,3.34
14.894,3.35,-3.95,-4.98,7.18
14.904,4.03,-5.26,-9.24,11.37
14.914,3.13,-5.51,-9.48,11.41
14.924,1.25,-5.77,-7.59,9.61
14.934,-0.49,-6.11,-5.44,8.19
14.944,-1.40,-5.34,-1.87,5.83
14.954,-2.72,-5.78,-1.09,6.48
14.964,-3.57,-6.60,0.10,7.51
14.974,-5.67,-8.21,1.78,10.14
14.984,-7.94,-9.11,4.27,12.82
14.994,-8.88,-8.64,4.97,13.35
15.004,-7.74,-7.10,3.23,10.99
15.014,-5.23,-4.54,2.21,7.27
15.025,-2.88,-1.96,1.99,4.01
15.035,-1.29,-0.05,2.24,2.58
15.045,-0.44,1.02,2.29,2.54
15.055,-0.12,1.31,3.21,3.47
15.065,0.20,1.27,3.81,4.02
15.075,-0.38,1.11,3.54,3.73
15.085,-1.26,1.01,2.68,3.12
15.095,-1.78,1.08,2.10,2.95
15.105,-2.23,1.23,2.09,3.29
15.115,-2.34,1.29,2.08,3.39
15.125,-2.26,1.46,1.84,3.26
15.135,-1.92,1.60,1.53,2.93
15.145,-1.64,2.04,1.52,3.02
15.155,-1.44,2.53,1.69,3.37
15.166,-1.23,2.93,1.95,3.73
15.176,-1.14,3.44,2.33,4.31
15.186,-0.99,3.92,2.53,4.77
15.196,-0.75,4.38,2.66,5.17
15.206,-0.48,4.71,2.86,5.53
15.216,-0.32,4.60,3.01,5.51
15.226,-0.12,4.28,3.10,5.28
15.236,0.24,3.95,2.99,4.96
15.246,0.44,3.40,2.57,4.29
15.256,0.57,2.65,1.83,3.27
15.266,0.86,1.69,1.09,2.19
15.276,1.30,0.69,0.37,1.52
15.286,1.67,-0.22,-0.27,1.71
15.296,1.79,-0.97,-0.53,2.10
15.306,1.96,-1.09,-0.40,2.28
15.316,2.05,-1.16,-0.45,2.40
15.327,2.29,-0.91,-0.84,2.60
15.337,2.71,-0.30,-1.23,2.99
15.347,2.66,-0.64,-2.17,3.49
15.357,2.36,-0.85,-2.98,3.90
15.367,1.79,-1.26,-3.47,4.10
15.377,1.07,-1.70,-3.62,4.14
15.387,0.56,-1.77,-3.90,4.32
15.397,0.12,-1.18,-4.54,4.69
15.407,0.19,0.02,-5.00,5.00
15.417,0.26,0.85,-4.96,5.04
15.427,0.15,1.37,-4.47,4.68
15.437,-0.03,1.60,-3.82,4.14
15.447,-0.25,1.77,-3.07,3.56
15.457,-0.28,1.62,-2.29,2.82
15.468,-0.24,1.53,-1.52,2.17
15.478,-0.02,1.53,-0.81,1.73
15.488,0.28,1.67,-0.33,1.73
15.498,0.34,1.84,-0.27,1.89
15.508,0.40,1.99,-0.45,2.08
15.518,0.33,1.98,-0.58,2.09
15.528,0.29,1.88,-0.28,1.92
15.538,-0.09,0.91,-0.46,1.03
15.548,-0.03,0.15,-0.47,0.49
15.558,0.24,-0.19,-0.50,0.58
15.568,-0.11,-1.55,-1.46,2.13
15.578,-0.40,-2.52,-0.99,2.73
15.588,-1.65,-4.26,-0.16,4.57
15.598,-2.20,-4.42,0.85,5.01
15.609,-2.53,-4.09,1.45,5.03
15.619,-1.47,-2.49,1.95,3.49
15.629,-1.67,-3.63,0.59,4.04
15.639,-1.04,-6.19,-0.76,6.32
15.649,-0.24,-7.76,-0.73,7.80
15.659,-0.72,-8.33,0.67,8.39
15.669,-1.71,-7.18,1.84,7.61
15.679,-3.60,-6.77,1.59,7.83
15.689,-5.07,-5.36,1.18,7.47
15.699,-5.84,-3.74,0.88,6.99
15.709,-4.69,-1.74,1.88,5.34
15.719,-3.47,-1.27,2.67,4.56
15.729,-2.16,-0.77,2.94,3.72
15.740,-0.91,0.15,3.32,3.45
15.750,-0.19,0.69,3.70,3.76
15.760,0.28,1.03,3.86,4.01
15.770,0.65,1.23,3.79,4.04
15.780,0.69,1.09,3.66,3.88
15.790,0.72,0.84,3.42,3.60
15.800,0.85,0.69,3.18,3.36
15.810,1.13,0.81,2.80,3.13
15.820,1.59,0.73,2.50,3.06
15.830,2.01,0.73,2.27,3.12
15.840,2.32,0.94,1.87,3.12
15.850,2.37,1.15,1.28,2.93
15.860,2.41,1.41,0.77,2.89
15.870,2.29,1.82,0.51,2.97
15.880,1.87,2.03,0.29,2.78
15.890,1.38,1.33,-0.42,1.96
15.900,0.82,0.35,-1.33,1.60
15.911,0.22,-0.20,-2.19,2.21
15.921,-0.62,-0.51,-2.86,2.97
15.931,-1.46,-0.69,-3.41,3.77
15.941,-2.23,-0.84,-3.76,4.45
15.951,-2.62,-0.69,-3.60,4.51
15.961,-3.41,-1.79,-3.44,5.17
15.971,-3.85,-1.94,-2.89,5.20
15.981,-4.40,-3.70,-2.47,6.26
15.991,-4.95,-4.61,-2.13,7.09
16.001,-4.26,-3.60,-1.07,5.68
16.011,-3.28,-3.20,-0.34,4.59
16.021,-2.83,-2.25,0.23,3.62
16.032,-1.85,-2.14,0.98,3.00
16.042,-0.64,-1.77,1.68,2.52
16.052,0.21,-1.84,1.70,2.51
16.062,1.35,-1.29,1.56,2.43
16.072,2.54,-0.49,0.60,2.65
16.082,3.97,-0.10,0.54,4.01
16.092,5.03,-0.38,0.96,5.13
16.102,6.01,-0.40,1.32,6.16
16.112,6.14,-1.07,1.26,6.36
16.122,5.31,-1.34,1.06,5.58
16.132,4.49,-2.17,1.07,5.10
16.142,3.76,-2.10,1.16,4.46
16.152,3.13,-2.05,1.32,3.97
16.162,2.87,-1.71,1.47,3.65
16.172,2.80,-1.69,1.35,3.54
16.183,2.55,-1.87,1.37,3.45
16.192,2.05,-1.87,1.28,3.05
16.203,1.07,-1.81,0.37,2.13
16.213,-1.46,-1.39,-3.34,3.90
16.223,-2.32,-0.65,-6.06,6.52
16.233,-0.71,0.42,-5.59,5.65
16.243,-0.17,1.07,-3.76,3.92
16.253,-1.20,1.14,-2.37,2.89
16.263,-2.17,0.91,-1.08,2.59
16.273,-2.22,1.45,0.32,2.67
16.283,-1.26,0.64,1.72,2.23
16.293,0.05,-0.91,1.74,1.96
16.303,0.87,-2.38,1.15,2.78
16.313,0.18,-3.18,-0.32,3.20
16.323,-1.48,-4.02,-2.15,4.79
16.333,-2.59,-4.63,-1.99,5.67
16.344,-3.33,-3.95,-1.46,5.37
16.354,-3.71,-3.40,-1.74,5.33
16.364,-3.27,-2.58,-1.76,4.52
16.374,-2.35,-2.34,-2.16,3.96
16.384,-1.41,-2.81,-2.79,4.20
16.394,-0.54,-3.57,-2.99,4.69
16.404,0.41,-3.99,-3.22,5.15
16.414,0.92,-3.42,-2.85,4.54
16.424,1.22,-2.54,-2.22,3.59
16.434,1.57,-1.21,-1.44,2.45
16.444,4.59,-0.00,-1.31,4.78
16.455,6.93,0.70,-1.14,7.06
16.465,6.33,0.93,-0.60,6.43
16.474,5.36,0.17,-0.62,5.40
16.485,4.28,-1.05,-0.75,4.47
16.495,3.36,-1.09,-0.28,3.54
16.505,2.43,0.39,0.67,2.55
16.515,1.31,2.14,1.90,3.14
16.525,0.22,3.35,3.03,4.52
16.535,-0.79,3.83,3.65,5.35
16.545,-1.66,3.58,3.59,5.33
16.555,-2.15,2.78,3.12,4.70
16.565,-2.36,1.97,2.65,4.06
16.575,-2.29,1.92,2.49,3.89
16.585,-1.80,2.85,2.66,4.29
16.595,-1.65,3.46,2.69,4.68
16.605,-1.83,3.72,2.44,4.81
16.616,-2.04,3.27,2.31,4.50
16.626,-2.28,2.31,2.11,3.87
16.636,-2.32,1.37,1.74,3.21
16.646,-2.49,0.37,1.31,2.84
16.656,-2.50,0.56,1.14,2.80
16.666,-2.14,1.19,1.12,2.69
16.677,-1.92,1.67,0.95,2.71
16.686,-1.91,1.76,0.65,2.68
16.696,-1.85,1.26,0.63,2.32
16.706,-1.65,0.39,0.77,1.87
16.716,-1.59,-0.29,0.79,1.80
16.726,-1.63,-0.66,0.65,1.87
16.736,-2.31,-1.35,0.09,2.67
16.746,-2.47,-1.05,-0.32,2.71
16.757,-2.63,-1.17,-0.74,2.97
16.767,-2.53,-1.07,-1.09,2.96
16.777,-2.53,-1.43,-1.28,3.17
16.787,-2.26,-1.37,-1.19,2.90
16.797,-2.07,-1.72,-1.09,2.90
16.807,-2.03,-1.85,-1.13,2.97
16.817,-2.22,-2.14,-1.39,3.39
16.827,-2.51,-2.25,-1.66,3.75
16.837,-2.51,-2.35,-1.78,3.87
16.847,-2.17,-2.33,-1.54,3.54
16.857,-1.70,-2.11,-0.84,2.83
16.867,-1.64,-2.73,-0.22,3.19
16.877,-1.96,-3.91,-0.08,4.37
16.887,-2.36,-4.99,-0.27,5.53
16.898,-2.41,-5.69,0.76,6.22
16.907,-2.64,-5.82,0.87,6.45
16.918,-3.36,-4.87,-0.27,5.92
16.928,-2.00,-3.72,1.38,4.44
16.938,0.65,-2.98,2.13,3.71
16.948,3.56,-2.53,2.61,5.09
16.958,5.46,-2.50,1.98,6.33
16.968,5.51,-2.53,0.07,6.06
16.978,3.25,-1.67,-0.78,3.74
16.988,0.02,-0.47,-1.41,1.49
16.998,0.05,0.29,-2.01,2.03
17.008,-0.94,0.27,-2.26,2.46
17.018,-1.55,-0.56,-2.36,2.88
17.029,-0.70,-1.26,-1.50,2.09
17.039,0.63,-1.50,-1.29,2.07
17.049,1.99,-1.59,-0.99,2.74
17.059,2.76,-1.95,-0.54,3.42
17.069,2.79,-2.82,-0.45,3.99
17.079,2.62,-3.53,-0.22,4.40
17.089,2.03,-2.68,0.77,3.45
17.099,1.40,-2.08,1.59,2.97
17.109,0.63,-2.02,2.26,3.09
17.119,0.28,-1.93,2.28,3.00
17.129,0.13,-1.87,2.17,2.86
17.139,-0.07,-1.85,2.34,2.98
17.149,0.08,-1.46,2.27,2.70
17.159,0.42,-0.72,1.79,1.97
17.169,0.81,-0.10,1.22,1.47
17.179,1.40,-0.27,0.85,1.66
17.189,1.12,-0.61,0.66,1.43
17.200,0.67,-0.73,0.58,1.15
17.209,0.47,-0.60,0.36,0.84
17.220,0.59,-0.44,0.07,0.74
17.230,0.74,-0.34,-0.36,0.88
17.240,0.98,-0.07,-0.91,1.34
17.250,0.99,0.00,-1.30,1.63
17.260,0.93,-0.36,-1.19,1.55
17.270,0.92,-0.93,-0.70,1.48
17.280,0.70,-1.29,-0.44,1.53
17.290,0.59,-1.40,-0.24,1.53
17.300,0.50,-1.14,0.14,1.25
17.310,0.31,-0.94,0.37,1.06
17.320,-0.11,-1.02,0.18,1.04
17.330,-0.25,-0.85,0.05,0.89
17.341,-0.13,-0.37,0.10,0.41
17.351,0.12,-0.32,-0.02,0.35
17.361,-0.15,-0.38,-0.08,0.41
17.371,-0.29,-0.24,-0.14,0.40
17.381,-0.24,-0.05,-0.30,0.39
17.391,-0.28,0.22,-0.59,0.68
17.401,-0.15,0.58,-0.88,1.07
17.411,-0.32,0.51,-1.40,1.52
17.421,-0.15,0.44,-1.89,1.94
17.431,0.01,0.30,-1.69,1.71
17.441,-0.28,-0.09,-1.15,1.19
17.451,-0.20,0.19,-0.71,0.76
17.461,-0.21,0.30,-0.44,0.57
17.471,-0.30,-0.18,-0.60,0.70
17.482,-0.04,-0.45,-0.74,0.87
17.492,0.47,-0.53,-0.55,0.89
17.502,0.75,-0.66,-0.45,1.09
17.512,0.89,-0.81,-0.30,1.24
17.522,0.81,-0.91,-0.16,1.23
17.532,0.60,-0.85,0.06,1.05
17.542,0.50,-0.66,0.28,0.87
17.552,0.27,-0.40,0.47,0.67
17.562,-0.00,-0.22,0.48,0.53
17.572,0.17,-0.28,0.46,0.57
17.582,0.28,-0.31,0.42,0.59
17.592,0.27,-0.27,0.35,0.52
17.602,0.27,-0.25,0.39,0.54
17.612,0.34,-0.26,0.39,0.58
17.623,0.12,-0.17,0.40,0.45
17.633,0.07,-0.18,0.29,0.35
17.643,0.33,-0.24,0.27,0.49
17.653,0.31,-0.20,0.20,0.42
17.663,0.27,-0.15,0.14,0.34
17.673,0.23,-0.20,0.26,0.40
17.683,0.20,-0.22,0.26,0.39
17.693,0.11,-0.20,0.24,0.33
17.703,-0.23,-0.17,0.22,0.36
17.713,-0.05,-0.15,0.14,0.21
17.723,-0.03,-0.06,-0.00,0.07
17.733,0.08,0.02,-0.18,0.20
17.743,0.10,0.04,-0.26,0.28
17.753,0.12,-0.05,-0.26,0.29
17.763,0.13,-0.11,-0.25,0.30
17.774,0.11,-0.19,-0.21,0.30
17.784,0.05,-0.26,-0.10,0.28
17.794,-0.01,-0.25,0.05,0.26
17.804,0.09,-0.37,0.03,0.38
17.814,0.12,-0.32,0.03,0.34
17.824,-0.00,-0.18,0.01,0.18
17.834,-0.00,0.01,0.03,0.03
17.844,-0.10,0.05,-0.11,0.16
17.854,-0.31,0.11,-0.13,0.35
17.864,-0.33,0.14,-0.04,0.36
17.874,-0.26,-0.10,-0.04,0.28
17.884,-0.18,-0.29,0.02,0.34
17.894,-0.08,-0.33,0.05,0.35
17.904,-0.02,-0.28,0.06,0.29
17.914,-0.08,-0.22,0.08,0.24
17.925,-0.11,-0.20,0.05,0.23
17.935,-0.10,-0.22,0.01,0.24
17.945,-0.11,-0.21,-0.02,0.24
17.955,-0.11,-0.20,-0.07,0.24
17.965,-0.12,-0.20,-0.12,0.26
17.975,-0.13,-0.16,-0.12,0.24
17.985,-0.18,-0.06,-0.13,0.23
17.995,-0.06,-0.03,-0.08,0.11
18.005,0.01,-0.03,-0.09,0.09
18.015,0.12,-0.10,-0.13,0.20
18.025,0.25,-0.22,-0.19,0.38
18.035,0.46,-0.25,0.14,0.54
18.046,0.41,-0.13,-0.19,0.47
18.056,0.05,-0.13,-0.55,0.56
18.066,-0.17,-0.06,-0.27,0.33
18.076,-0.16,0.15,-0.03,0.22
18.086,-0.30,0.26,-0.05,0.40
18.096,-0.04,0.16,-0.08,0.18
18.106,0.10,0.01,0.02,0.10
