time,ax,ay,az,atotal
0.000,0.33,-0.02,-0.13,0.36
0.010,0.17,0.06,0.04,0.18
0.020,0.09,0.00,0.22,0.24
0.030,-0.05,0.05,0.41,0.41
0.040,-0.18,0.06,0.44,0.48
0.050,-0.16,0.02,0.17,0.23
0.061,-0.11,0.01,-0.14,0.18
0.071,-0.06,0.00,-0.36,0.36
0.081,-0.06,0.13,-0.41,0.44
0.091,-0.10,0.25,-0.42,0.50
0.101,-0.12,0.29,-0.51,0.60
0.111,-0.16,0.31,-0.61,0.70
0.121,-0.22,0.33,-0.70,0.80
0.131,-0.23,0.24,-0.72,0.80
0.141,-0.14,0.15,-0.54,0.58
0.151,-0.03,0.15,-0.23,0.27
0.161,0.10,0.05,0.06,0.13
0.171,0.14,0.00,0.10,0.17
0.181,0.15,0.09,0.14,0.22
0.192,0.07,0.18,0.03,0.20
0.201,-0.06,0.22,-0.32,0.39
0.212,-0.08,0.21,-0.55,0.60
0.222,-0.04,0.15,-0.53,0.55
0.232,-0.41,0.27,-0.19,0.53
0.242,-0.11,0.15,-0.28,0.34
0.258,0.22,0.03,-0.25,0.33
0.262,-0.00,0.09,-0.05,0.10
0.272,-0.21,0.09,-0.16,0.28
0.282,-0.22,0.10,-0.17,0.29
0.292,-0.08,-0.06,-0.23,0.25
0.302,0.04,-0.12,-0.01,0.13
0.312,0.01,0.07,0.47,0.48
0.322,0.03,0.40,1.10,1.17
0.332,0.07,0.47,1.66,1.73
0.342,-0.19,0.06,2.23,2.24
0.352,1.35,-0.12,0.22,1.38
0.363,0.93,-0.72,0.03,1.17
0.373,0.03,-1.53,0.20,1.55
0.383,-0.17,-0.87,-0.51,1.02
0.393,-0.49,0.01,-0.50,0.70
0.403,-0.56,0.02,-0.81,0.99
0.413,0.09,0.33,-1.24,1.29
0.423,0.42,0.62,-1.27,1.48
0.433,0.16,0.53,-0.96,1.11
0.443,0.16,0.62,-0.57,0.85
0.453,0.25,0.83,0.12,0.88
0.463,0.48,0.73,0.48,1.00
0.473,0.74,0.37,0.62,1.03
0.483,0.67,0.11,0.87,1.10
0.493,0.60,-0.07,0.97,1.14
0.504,0.89,-0.04,0.65,1.10
0.514,1.29,0.20,0.37,1.35
0.524,1.83,0.43,0.25,1.89
0.534,2.44,0.37,-0.88,2.62
0.544,1.58,-0.15,-1.79,2.40
0.554,0.70,0.36,-2.30,2.43
0.564,0.71,0.52,-3.27,3.38
0.574,0.43,-0.83,-2.78,2.93
0.584,0.27,-1.59,-1.87,2.47
0.594,0.72,-1.35,-0.61,1.65
0.604,1.25,-1.61,-0.43,2.08
0.614,1.79,-0.26,-1.96,2.66
0.624,1.43,-0.38,-0.72,1.64
0.634,1.54,-1.15,-0.43,1.97
0.644,1.42,-0.97,-0.41,1.77
0.655,1.17,-0.83,-0.33,1.47
0.665,0.97,-0.92,-0.45,1.41
0.675,0.89,-0.98,-0.63,1.47
0.685,0.85,-0.92,-0.71,1.44
0.695,0.86,-0.85,-0.73,1.41
0.705,0.93,-0.87,-0.71,1.45
0.715,0.79,-1.04,-0.62,1.44
0.725,0.41,-1.28,-0.67,1.50
0.735,0.10,-1.49,-0.78,1.69
0.745,-0.08,-1.57,-0.99,1.86
0.755,-0.25,-1.55,-1.35,2.07
0.765,-0.54,-1.56,-1.79,2.43
0.775,-0.92,-1.71,-2.06,2.83
0.785,-1.32,-1.94,-2.30,3.29
0.796,-1.46,-2.07,-2.55,3.59
0.806,-1.33,-2.01,-2.64,3.58
0.816,-1.09,-1.84,-2.60,3.37
0.826,-0.91,-1.74,-2.47,3.16
0.836,-0.80,-1.83,-2.20,2.98
0.846,-0.81,-2.03,-2.11,3.04
0.856,-0.89,-2.24,-2.21,3.27
0.866,-0.84,-2.44,-2.14,3.35
0.876,-0.61,-2.42,-1.91,3.14
0.886,-0.19,-2.17,-1.74,2.79
0.896,0.10,-1.97,-1.88,2.73
0.906,0.29,-1.67,-1.80,2.47
0.916,0.32,-1.46,-1.41,2.06
0.926,0.39,-1.67,-1.06,2.01
0.936,0.31,-2.08,-0.75,2.23
0.946,0.21,-2.51,-0.60,2.59
0.957,0.19,-2.68,-0.65,2.76
0.967,-0.11,-2.48,-1.11,2.72
0.977,-0.57,-2.12,-1.52,2.67
0.987,-0.86,-1.93,-1.45,2.56
0.997,-1.01,-2.04,-1.15,2.55
1.007,-1.11,-2.22,-0.88,2.64
1.017,-1.34,-2.27,-0.50,2.69
1.027,-1.44,-2.16,-0.18,2.60
1.037,-1.47,-1.95,0.05,2.44
1.047,-1.57,-1.72,0.41,2.36
1.057,-1.58,-1.56,1.06,2.46
1.067,-1.49,-1.45,1.58,2.61
1.077,-1.25,-1.30,1.87,2.60
1.088,-0.69,-0.98,2.19,2.50
1.098,-0.15,-0.52,2.54,2.59
1.108,0.04,0.08,2.84,2.84
1.118,1.79,1.48,3.10,3.87
1.128,5.00,1.20,4.24,6.67
1.138,3.51,0.94,5.00,6.18
1.148,-1.66,0.76,5.60,5.89
1.158,-2.91,-0.07,5.37,6.11
1.168,-1.21,-0.04,4.87,5.02
1.178,-0.54,0.93,4.11,4.25
1.188,-0.85,1.14,4.11,4.35
1.198,-0.03,0.90,4.61,4.70
1.208,0.61,0.88,4.77,4.89
1.218,0.60,1.00,4.59,4.74
1.228,0.65,1.12,4.45,4.64
1.239,0.54,1.24,4.29,4.50
1.249,0.13,1.26,3.66,3.88
1.259,-0.36,1.33,2.89,3.20
1.269,-0.66,1.31,2.38,2.80
1.279,-0.44,1.17,2.27,2.59
1.289,0.26,1.16,2.40,2.68
1.299,1.09,1.09,2.40,2.85
1.309,1.88,1.12,2.31,3.18
1.319,2.20,1.34,2.17,3.36
1.329,2.21,1.34,2.00,3.26
1.339,2.34,1.18,1.84,3.20
1.349,2.58,1.09,1.57,3.21
1.359,2.91,1.35,1.41,3.51
1.369,3.53,1.80,1.20,4.14
1.379,4.22,2.24,0.72,4.83
1.390,4.49,2.52,0.41,5.17
1.400,4.24,2.67,0.21,5.02
1.410,3.96,2.80,0.37,4.87
1.420,4.12,2.79,0.79,5.04
1.430,4.89,2.75,0.97,5.69
1.440,4.98,3.39,-0.42,6.04
1.450,3.61,3.68,-3.35,6.14
1.460,1.65,2.76,-5.56,6.42
1.470,0.85,1.86,-7.48,7.75
1.480,1.35,1.43,-7.03,7.30
1.491,1.94,2.19,-4.48,5.35
1.500,1.79,3.04,-1.36,3.78
1.510,1.13,2.80,0.87,3.14
1.521,-0.12,2.59,2.22,3.42
1.530,-2.09,2.37,2.34,3.93
1.541,-4.09,1.89,1.55,4.76
1.551,-5.18,1.74,1.35,5.63
1.561,-4.82,1.31,1.79,5.31
1.571,-3.90,1.15,1.49,4.34
1.581,-3.82,0.96,0.44,3.97
1.591,-4.00,0.37,0.18,4.02
1.601,-3.98,-0.13,-0.16,3.99
1.611,-3.88,-0.78,-0.71,4.02
1.621,-3.62,-1.55,-1.13,4.10
1.631,-3.06,-2.36,-1.54,4.16
1.641,-2.53,-2.86,-1.92,4.28
1.651,-1.98,-3.55,-1.01,4.19
1.661,-1.33,-3.96,0.66,4.23
1.671,-0.78,-4.33,1.29,4.59
1.682,-1.15,-4.65,2.17,5.26
1.691,-0.84,-4.98,3.94,6.41
1.702,-0.22,-4.31,4.73,6.40
1.712,0.69,-3.26,3.74,5.01
1.722,2.87,-2.38,2.83,4.68
1.732,4.23,-1.42,1.72,4.78
1.742,4.11,-0.90,0.22,4.21
1.752,3.49,-0.57,-0.86,3.63
1.762,2.52,-0.21,-0.94,2.70
1.772,1.97,-0.05,-0.70,2.09
1.782,1.88,0.19,-0.36,1.93
1.792,1.79,0.59,-0.26,1.90
1.802,1.12,0.93,-0.48,1.53
1.812,0.21,1.00,-0.80,1.30
1.822,-0.99,1.18,-0.96,1.81
1.832,-1.32,1.51,-1.44,2.47
1.843,-1.25,2.21,-1.81,3.12
1.853,-0.53,2.45,-0.85,2.65
1.863,1.00,2.14,-0.68,2.46
1.873,0.64,2.47,-1.34,2.88
1.883,-0.18,2.17,-1.36,2.57
1.893,-0.08,1.99,-0.83,2.16
1.903,1.10,2.30,-0.55,2.61
1.913,2.88,2.65,-0.86,4.00
1.923,3.02,2.79,-1.27,4.30
1.933,2.06,2.70,-1.49,3.71
1.943,1.47,2.30,-1.27,3.01
1.953,1.00,2.01,-0.47,2.29
1.963,0.20,1.47,-0.04,1.48
1.974,-1.11,1.00,-0.31,1.53
1.984,-3.09,0.97,0.63,3.30
1.994,-4.31,-0.07,1.43,4.54
2.004,-4.39,-1.08,1.01,4.63
2.014,-3.44,-1.16,0.28,3.64
2.024,-2.39,-0.85,-0.72,2.64
2.034,-2.08,-0.57,-0.97,2.36
2.044,-1.30,-0.81,-0.12,1.54
2.054,0.28,-1.32,1.19,1.80
2.064,2.06,-1.49,2.29,3.42
2.074,2.29,-0.57,3.29,4.04
2.084,-0.26,1.52,3.25,3.60
2.094,1.38,0.46,2.42,2.82
2.104,2.38,-0.81,1.47,2.92
2.114,2.14,-0.98,0.22,2.37
2.124,1.43,-0.85,-1.21,2.05
2.134,1.13,-1.78,-2.24,3.07
2.145,0.22,-1.72,-2.65,3.17
2.155,-1.49,0.22,-1.89,2.41
2.165,-2.47,1.33,-1.48,3.17
2.175,-3.30,1.83,-0.99,3.90
2.185,-3.95,1.80,-0.56,4.38
2.195,-3.80,1.44,-0.43,4.09
2.205,-3.16,0.35,-0.46,3.21
2.215,-2.40,-1.22,-0.68,2.78
2.225,-1.39,-2.72,-0.68,3.13
2.235,-0.48,-3.61,-0.85,3.74
2.245,0.26,-3.94,-0.94,4.06
2.255,1.45,-4.09,-0.72,4.40
2.265,2.52,-3.82,-0.42,4.59
2.276,2.77,-2.95,0.11,4.05
2.286,2.36,-1.76,0.71,3.03
2.296,1.59,-0.30,0.70,1.76
2.306,0.51,1.45,0.81,1.74
2.316,-0.46,2.54,1.20,2.84
2.326,-1.23,2.87,1.49,3.46
2.336,-1.61,2.94,1.69,3.75
2.346,-1.83,2.68,1.80,3.71
2.356,-2.18,1.65,1.73,3.24
2.366,-2.45,-0.33,1.48,2.88
2.376,-2.90,-1.80,0.80,3.51
2.386,-2.65,-1.43,-0.60,3.07
2.396,-2.15,1.27,-0.47,2.54
2.406,-2.58,3.02,0.62,4.02
2.416,-2.13,4.63,1.36,5.28
2.427,-2.06,5.13,1.21,5.66
2.437,-1.35,3.44,0.35,3.71
2.447,-0.37,1.57,-0.70,1.76
2.457,0.42,0.36,-1.09,1.23
2.467,1.28,-0.60,-0.68,1.57
2.477,2.05,-0.63,-0.33,2.17
2.487,2.89,-0.58,-1.17,3.17
2.497,3.16,-0.68,-2.07,3.84
2.507,2.94,-0.32,-1.63,3.38
2.517,2.50,0.00,-0.48,2.55
2.527,1.81,-0.54,0.48,1.95
2.537,0.85,-1.28,0.96,1.81
2.547,-0.26,-2.21,0.83,2.37
2.558,-1.14,-2.48,0.25,2.74
2.568,-1.65,-2.19,-0.37,2.76
2.578,-1.62,-1.87,-0.84,2.62
2.588,-1.30,-1.94,-1.27,2.65
2.598,-0.86,-2.69,-1.39,3.15
2.608,-0.09,-3.33,-1.04,3.49
2.618,0.86,-3.39,-0.66,3.56
2.628,1.43,-3.14,-0.29,3.47
2.638,2.21,-1.76,0.06,2.83
2.648,2.41,1.51,0.75,2.94
2.658,1.99,5.50,0.83,5.91
2.668,1.68,5.29,0.68,5.60
2.678,1.27,3.62,1.18,4.01
2.688,0.45,1.22,1.62,2.08
2.698,-0.47,-1.02,1.68,2.02
2.708,-0.77,-0.83,1.35,1.76
2.719,-0.87,-0.49,0.88,1.33
2.729,-0.96,-0.86,0.22,1.31
2.739,-0.83,-1.28,-0.48,1.60
2.749,-1.04,-1.63,-0.91,2.13
2.759,-1.09,-0.98,-1.35,1.99
2.769,-1.05,-0.50,-1.70,2.06
2.779,-0.84,-0.52,-1.75,2.01
2.789,-1.18,-2.24,-1.64,3.02
2.799,-0.98,-2.59,-1.22,3.02
2.809,-0.29,-2.05,-0.57,2.15
2.819,0.36,-1.94,0.07,1.98
2.829,0.94,-1.47,0.25,1.76
2.839,1.32,-0.63,0.09,1.47
2.849,1.57,0.03,-0.06,1.57
2.860,1.71,0.51,-0.12,1.79
2.870,1.73,0.94,0.01,1.97
2.880,1.53,0.95,-0.14,1.80
2.890,0.90,0.07,-0.87,1.26
2.900,-0.05,-0.76,-2.37,2.49
2.910,-0.17,-1.12,-3.26,3.45
2.920,0.20,-1.53,-3.54,3.86
2.930,0.72,-1.57,-3.19,3.63
2.940,1.07,-1.81,-2.43,3.21
2.950,1.14,-1.80,-2.32,3.15
2.960,1.34,-1.06,-3.16,3.60
2.970,1.25,-0.32,-4.46,4.64
2.980,0.71,-0.24,-5.16,5.22
2.990,0.30,-0.45,-4.96,4.99
3.001,0.06,-0.57,-4.10,4.14
3.011,-0.30,-0.58,-2.87,2.94
3.021,-0.67,-0.42,-1.78,1.95
3.031,-0.83,-0.07,-1.37,1.61
3.041,-0.65,-0.02,-1.43,1.57
3.051,-0.32,-0.39,-1.71,1.78
3.061,-0.08,-1.16,-2.09,2.40
3.071,-0.34,-1.76,-2.09,2.75
3.081,-1.27,-1.91,-1.10,2.54
3.091,-2.23,-1.83,0.95,3.04
3.101,-2.37,-1.78,2.85,4.11
3.111,-1.25,-1.58,3.99,4.47
3.121,0.73,-0.44,4.94,5.01
3.131,2.05,1.21,5.37,5.88
3.142,2.70,1.95,3.96,5.18
3.151,2.33,1.42,1.82,3.28
3.162,1.86,0.33,0.26,1.91
3.172,1.73,-0.29,-0.93,1.99
3.182,1.85,-0.44,-1.18,2.24
3.192,1.66,-0.19,-0.96,1.93
3.202,1.16,0.47,-0.35,1.30
3.212,0.49,1.60,0.55,1.77
3.222,0.06,2.14,1.14,2.42
3.232,0.17,2.38,1.21,2.68
3.242,0.39,2.49,1.07,2.74
3.252,0.42,2.30,0.78,2.47
3.262,0.49,1.93,0.33,2.02
3.272,0.53,1.55,-0.39,1.69
3.282,0.36,1.23,-0.98,1.61
3.292,0.15,0.99,-1.32,1.66
3.302,0.01,0.87,-1.49,1.72
3.313,-0.01,0.84,-1.46,1.68
3.323,0.17,0.93,-1.25,1.57
3.333,0.34,1.11,-1.04,1.56
3.343,0.52,1.22,-0.82,1.56
3.353,0.84,1.24,-0.92,1.76
3.363,1.14,1.23,-1.35,2.15
3.373,1.29,1.18,-1.83,2.53
3.383,1.26,1.07,-2.04,2.63
3.393,1.20,0.94,-1.99,2.51
3.403,0.98,0.83,-1.91,2.30
3.413,0.59,0.75,-1.63,1.89
3.423,0.17,0.78,-1.22,1.45
3.433,-0.15,0.92,-0.89,1.29
3.444,-0.57,1.15,-0.85,1.54
3.454,-0.98,1.41,-1.02,2.00
3.464,-1.23,1.59,-1.44,2.48
3.474,-1.27,1.63,-1.88,2.79
3.484,-1.28,1.59,-2.08,2.91
3.494,-1.32,1.48,-2.07,2.87
3.504,-1.30,1.30,-1.98,2.70
3.514,-1.11,1.13,-1.90,2.48
3.524,-0.81,0.93,-1.82,2.20
3.534,-0.48,0.72,-1.83,2.02
3.544,-0.16,0.51,-2.02,2.09
3.554,0.04,0.31,-2.21,2.23
3.564,0.05,0.17,-2.27,2.28
3.574,-0.18,-0.04,-2.39,2.40
3.584,-0.65,-0.37,-2.54,2.65
3.594,-1.05,-0.74,-2.67,2.96
3.605,-1.15,-1.10,-2.49,2.96
3.615,-1.01,-1.41,-1.96,2.62
3.625,-0.89,-2.00,-1.36,2.58
3.635,-1.08,-3.14,-1.10,3.50
3.645,-1.64,-4.67,-1.21,5.10
3.655,-2.28,-6.26,-1.90,6.93
3.665,-2.35,-7.31,-3.51,8.44
3.675,-1.45,-6.99,-5.10,8.77
3.685,-0.58,-4.25,-4.35,6.12
3.695,-0.49,-0.07,-1.75,1.81
3.705,-0.21,3.13,1.47,3.46
3.715,0.21,5.38,3.93,6.66
3.726,0.44,6.92,5.29,8.72
3.735,0.18,7.32,5.51,9.16
3.746,-0.01,7.01,4.69,8.43
3.756,-0.36,5.73,4.37,7.21
3.766,-1.48,3.91,4.47,6.12
3.776,-2.64,1.90,4.54,5.59
3.786,-3.30,0.17,4.58,5.65
3.796,-3.41,-1.11,4.54,5.78
3.806,-2.93,-2.06,4.34,5.63
3.816,-1.93,-2.71,3.92,5.14
3.826,-0.69,-3.27,3.24,4.65
3.836,0.24,-3.73,2.44,4.46
3.846,0.72,-3.89,1.28,4.15
3.856,1.48,-3.81,-0.15,4.09
3.866,3.62,-3.38,-0.73,5.01
3.876,7.94,-2.38,-0.88,8.34
3.886,3.32,-1.63,-2.03,4.22
3.897,3.73,-1.08,-1.44,4.14
3.907,2.74,-0.49,-1.16,3.01
3.917,1.62,-0.28,-0.56,1.73
3.927,0.81,-0.10,-0.02,0.81
3.937,0.46,0.07,0.13,0.48
3.947,0.65,0.26,0.23,0.74
3.957,0.88,0.62,0.35,1.13
3.967,1.19,0.90,0.34,1.53
3.977,1.47,0.73,0.23,1.65
3.987,1.80,0.71,-0.63,2.03
3.997,1.59,0.50,-1.45,2.21
4.007,1.05,0.23,-1.53,1.87
4.017,0.39,0.35,-1.37,1.47
4.028,-0.07,0.51,-1.28,1.38
4.038,-0.50,0.53,-1.33,1.52
4.048,-0.81,0.60,-1.44,1.75
4.058,-0.83,0.72,-1.53,1.89
4.068,-0.75,0.76,-1.53,1.87
4.078,-0.68,0.59,-1.46,1.71
4.088,-0.47,0.42,-1.33,1.47
4.098,-0.21,0.30,-1.26,1.31
4.108,0.01,0.20,-1.22,1.23
4.118,0.21,0.13,-1.12,1.15
4.128,0.42,0.10,-0.94,1.04
4.138,0.46,0.10,-0.81,0.94
4.148,0.44,0.16,-0.88,1.00
4.158,0.52,0.16,-1.04,1.18
4.168,0.62,0.05,-1.20,1.35
4.178,0.64,-0.17,-1.39,1.54
4.189,0.57,-0.49,-1.51,1.69
4.199,0.48,-0.79,-1.63,1.87
4.209,0.38,-1.05,-1.73,2.06
4.219,0.42,-1.28,-1.83,2.27
4.229,0.54,-1.47,-1.95,2.50
4.239,0.66,-1.59,-2.01,2.64
4.249,0.71,-1.79,-2.10,2.85
4.259,0.62,-1.84,-2.19,2.92
4.269,0.47,-1.80,-2.17,2.86
4.279,0.51,-1.87,-2.04,2.82
4.289,0.81,-2.04,-1.95,2.93
4.299,1.11,-2.30,-1.94,3.20
4.309,1.20,-2.51,-2.06,3.46
4.319,1.20,-2.64,-2.22,3.65
4.330,1.10,-2.71,-2.56,3.89
4.340,1.11,-2.62,-3.10,4.21
4.350,1.25,-2.35,-3.77,4.61
4.360,1.18,-2.11,-5.21,5.74
4.370,0.37,-2.42,-9.99,10.29
4.380,-1.32,-4.38,-14.80,15.49
4.390,-1.52,-6.23,-12.64,14.18
4.400,-0.24,-5.47,-7.29,9.12
4.410,0.50,-4.22,-3.58,5.56
4.420,1.35,-3.10,-1.36,3.65
4.430,2.04,-2.42,0.20,3.17
4.440,1.71,-1.79,1.75,3.03
4.450,1.11,-1.67,1.78,2.68
4.460,0.48,-1.55,1.73,2.37
4.470,-0.65,-1.71,2.36,2.99
4.481,-1.79,-2.01,3.23,4.20
4.491,-2.68,-2.40,4.35,5.64
4.501,-3.41,-2.70,5.51,7.02
4.511,-3.70,-2.88,5.64,7.33
4.521,-4.01,-3.21,4.99,7.16
4.531,-4.47,-3.37,3.28,6.49
4.541,-4.48,-3.15,0.81,5.54
4.551,-3.64,-1.76,-0.28,4.05
4.561,-2.47,-0.01,-0.23,2.48
4.571,-1.89,1.03,-0.26,2.16
4.581,-1.47,1.72,-1.45,2.69
4.591,-0.79,2.23,-1.40,2.75
4.601,-0.73,2.52,1.33,2.94
4.612,-0.45,2.80,2.36,3.69
4.621,-0.15,2.57,2.19,3.38
4.632,-0.06,2.34,2.77,3.62
4.642,0.28,2.59,3.92,4.71
4.652,0.60,2.86,4.82,5.63
4.662,0.98,2.83,5.58,6.33
4.672,0.95,2.78,5.94,6.62
4.682,0.87,2.67,5.98,6.61
4.692,0.92,2.55,5.63,6.24
4.702,0.97,2.49,5.02,5.68
4.712,0.90,2.42,4.38,5.08
4.722,0.78,2.43,3.99,4.74
4.732,0.63,2.48,3.94,4.70
4.742,0.62,2.60,4.20,4.98
4.752,0.74,2.81,4.57,5.41
4.762,1.01,2.95,4.89,5.80
4.773,1.29,3.04,5.01,6.00
4.783,1.44,3.06,4.95,6.00
4.793,1.46,3.10,4.71,5.82
4.803,1.53,3.13,4.27,5.51
4.813,1.72,3.07,3.61,5.04
4.823,1.86,2.78,2.76,4.34
4.833,2.00,2.13,1.45,3.26
4.843,2.46,0.98,-1.05,2.85
4.853,3.11,-1.01,-5.83,6.68
4.863,2.51,-4.88,-15.24,16.20
4.873,0.09,-11.25,-29.38,31.46
4.883,-1.93,-16.43,-31.36,35.46
4.893,-3.40,-15.73,-15.88,22.61
4.903,-4.66,-10.58,-1.71,11.69
4.914,-4.12,-5.21,2.13,6.97
4.924,-3.55,-1.15,2.04,4.25
4.934,-2.49,2.09,0.79,3.35
4.944,-1.26,5.11,0.18,5.26
4.954,-0.17,7.42,1.34,7.54
4.964,0.26,8.86,3.16,9.41
4.974,-0.32,9.11,5.68,10.74
4.984,-2.37,7.27,9.22,11.98
4.994,-4.86,4.74,10.12,12.19
5.004,-7.86,1.98,9.47,12.46
5.014,-11.08,-0.64,6.79,13.01
5.024,-15.02,-5.32,-4.18,16.47
5.034,-12.74,-6.99,1.56,14.62
5.044,-5.42,-3.83,6.09,9.01
5.054,-0.47,-0.89,5.24,5.33
5.064,1.38,1.02,4.87,5.16
5.075,1.71,1.80,4.23,4.90
5.084,2.16,1.78,3.45,4.44
5.095,2.60,1.03,3.26,4.30
5.105,2.83,-0.76,3.07,4.25
5.115,3.34,-2.91,3.16,5.44
5.125,1.66,-4.58,4.03,6.32
5.135,1.63,-5.90,2.68,6.69
5.145,4.14,-5.95,0.33,7.25
5.155,3.19,-4.75,1.28,5.86
5.165,4.98,-3.52,0.53,6.12
5.175,5.75,-2.27,0.04,6.18
5.185,5.14,-1.07,0.25,5.26
5.195,4.95,-0.02,0.08,4.95
5.205,4.66,0.77,0.13,4.73
5.216,4.38,1.41,0.38,4.61
5.226,4.24,1.93,0.71,4.71
5.236,4.46,2.40,1.32,5.23
5.246,4.31,2.68,1.84,5.40
5.256,3.84,2.61,2.58,5.31
5.266,2.92,2.59,2.92,4.87
5.276,1.80,2.27,1.73,3.37
5.286,1.36,1.28,0.53,1.94
5.296,1.52,0.25,-0.00,1.54
5.306,1.57,-0.46,-0.26,1.66
5.316,1.40,-1.06,-0.58,1.85
5.326,1.05,-1.55,-0.88,2.07
5.336,0.71,-1.90,-1.17,2.34
5.346,0.50,-2.04,-1.42,2.54
5.357,0.40,-1.95,-1.76,2.66
5.367,0.30,-1.69,-2.20,2.79
5.377,-0.05,-1.28,-3.45,3.68
5.387,-0.95,-1.00,-5.84,6.00
5.397,-1.86,-0.86,-7.44,7.72
5.407,-2.14,-0.57,-8.21,8.50
5.417,-1.88,-0.50,-7.38,7.63
5.427,-0.92,-0.86,-4.90,5.06
5.437,0.00,-1.07,-3.09,3.27
5.447,0.10,-1.13,-2.58,2.82
5.457,-0.06,-1.22,-2.34,2.64
5.467,-0.10,-1.31,-2.11,2.49
5.477,0.05,-1.49,-1.97,2.47
5.487,0.30,-1.86,-1.84,2.63
5.497,0.51,-2.01,-1.59,2.61
5.507,0.52,-1.70,-0.94,2.01
5.517,0.20,-1.58,-0.39,1.64
5.528,0.33,-1.99,-0.59,2.10
5.538,0.73,-2.56,-0.92,2.82
5.548,1.07,-3.17,-1.13,3.53
5.558,1.41,-3.60,-1.35,4.09
5.568,1.63,-3.74,-1.93,4.51
5.578,1.43,-3.45,-3.36,5.02
5.588,0.05,-3.40,-8.13,8.82
5.598,-2.66,-4.85,-15.63,16.58
5.608,-3.34,-6.24,-14.92,16.51
5.618,-1.22,-5.43,-8.56,10.21
5.628,0.55,-4.19,-4.27,6.00
5.638,1.48,-2.94,-1.41,3.58
5.648,1.96,-2.08,0.42,2.89
5.659,2.19,-1.62,1.09,2.94
5.669,2.23,-1.17,1.45,2.90
5.679,1.77,-1.10,1.97,2.87
5.689,0.96,-1.68,2.61,3.25
5.699,-0.06,-2.39,3.49,4.23
5.709,-1.31,-3.05,4.77,5.81
5.719,-2.51,-3.69,6.12,7.57
5.729,-3.60,-4.10,6.48,8.47
5.739,-4.27,-4.16,6.01,8.46
5.749,-4.70,-3.81,5.40,8.11
5.759,-4.85,-2.95,4.57,7.29
5.769,-4.61,-1.77,2.69,5.62
5.779,-3.83,-0.51,-0.76,3.94
5.789,-2.82,1.12,-1.46,3.37
5.799,-2.38,2.22,0.34,3.27
5.810,-1.90,2.87,2.00,3.98
5.820,-0.98,3.38,2.35,4.23
5.830,-0.14,3.56,1.25,3.77
5.840,0.29,3.56,0.95,3.70
5.850,0.32,3.42,2.11,4.03
5.860,0.41,3.36,3.14,4.62
5.870,0.48,3.35,3.66,4.98
5.880,0.47,3.27,4.41,5.52
5.890,0.43,3.14,5.26,6.14
5.900,0.19,3.00,5.90,6.62
5.910,0.29,2.98,6.35,7.02
5.920,0.50,3.09,6.77,7.46
5.930,0.64,3.03,6.92,7.58
5.941,0.76,3.00,6.53,7.23
5.950,0.83,2.96,5.68,6.45
5.961,0.94,2.80,4.72,5.57
5.971,1.07,2.65,4.19,5.08
5.981,1.22,2.56,4.14,5.02
5.991,1.43,2.58,4.27,5.19
6.001,1.73,2.62,4.37,5.38
6.011,1.93,2.60,4.35,5.43
6.021,1.98,2.46,4.06,5.15
6.031,1.81,2.07,3.58,4.52
6.041,1.46,1.32,2.85,3.46
6.051,1.20,0.18,1.23,1.72
6.061,1.42,-1.57,-3.54,4.13
6.071,1.67,-5.52,-17.57,18.49
6.082,-0.45,-11.42,-30.08,32.18
6.092,-1.13,-14.71,-27.57,31.27
6.101,-0.95,-13.53,-15.74,20.78
6.112,-2.04,-8.45,-3.38,9.33
6.122,-3.74,-3.21,2.49,5.52
6.132,-4.01,0.24,3.08,5.06
6.142,-2.82,2.83,1.34,4.22
6.153,-1.70,5.10,-0.17,5.38
6.162,-0.99,7.24,-0.31,7.31
6.172,-0.32,8.84,1.54,8.98
6.182,-0.34,8.93,4.16,9.86
6.192,-2.43,6.61,6.88,9.84
6.202,-5.47,3.28,8.55,10.66
6.212,-8.78,-0.14,8.79,12.43
6.222,-11.60,-3.09,8.59,14.76
6.232,-13.86,-6.20,4.69,15.89
6.242,-11.01,-8.30,-1.13,13.84
6.252,-3.96,-4.82,2.75,6.82
6.263,-0.70,-1.14,4.37,4.57
6.273,0.95,1.15,3.93,4.20
6.283,1.65,2.48,2.81,4.09
6.293,1.79,2.85,2.19,4.02
6.303,1.97,2.25,1.87,3.53
6.313,1.74,1.05,1.98,2.84
6.323,1.51,-0.75,2.43,2.96
6.333,1.40,-2.56,2.67,3.95
6.343,1.57,-3.60,2.72,4.77
6.353,2.22,-3.89,2.72,5.25
6.363,2.78,-3.63,2.66,5.29
6.373,3.03,-3.03,2.39,4.91
6.384,3.06,-2.03,2.06,4.21
6.394,3.10,-0.93,1.81,3.71
6.404,3.29,0.09,1.60,3.66
6.414,3.64,0.93,1.29,3.98
6.424,3.95,1.59,1.02,4.37
6.434,4.07,2.05,0.76,4.62
6.444,3.88,2.12,0.41,4.44
6.454,3.40,1.71,-0.03,3.81
6.464,2.87,0.96,-0.50,3.07
6.474,2.09,0.15,-0.98,2.31
6.484,1.37,-0.39,-1.38,1.98
6.494,0.92,-0.58,-1.73,2.04
6.504,0.49,-0.41,-2.46,2.54
6.514,0.51,-0.23,-2.70,2.75
6.524,1.29,-0.02,-2.03,2.40
6.534,1.50,0.16,-1.24,1.95
6.545,1.01,0.28,-0.95,1.41
6.555,0.53,0.27,-0.81,1.00
6.565,0.30,0.18,-0.74,0.82
6.575,0.21,-0.04,-0.82,0.85
6.585,0.08,-0.37,-0.92,0.99
6.595,-0.16,-0.57,-1.07,1.22
6.605,-0.50,-0.74,-1.21,1.50
6.615,-0.85,-0.87,-1.27,1.76
6.625,-0.99,-0.99,-1.31,1.92
6.635,-1.04,-1.06,-1.33,2.00
6.645,-1.05,-0.99,-1.43,2.04
6.655,-1.00,-0.77,-1.65,2.08
6.665,-0.84,-0.58,-1.91,2.16
6.675,-0.65,-0.58,-2.07,2.25
6.686,-0.50,-0.72,-2.19,2.36
6.696,-0.37,-0.74,-2.33,2.47
6.706,-0.42,-0.73,-2.52,2.66
6.716,-0.44,-0.76,-2.74,2.88
6.726,-0.23,-0.93,-3.01,3.15
6.736,0.07,-1.41,-3.36,3.64
6.746,0.22,-2.14,-4.31,4.82
6.756,0.10,-2.92,-7.47,8.02
6.766,-0.31,-3.26,-13.19,13.59
6.776,-0.81,-3.25,-15.61,15.96
6.786,-0.93,-4.33,-11.14,11.99
6.796,-0.08,-6.22,-5.36,8.21
6.806,0.14,-7.33,-2.45,7.73
6.816,-0.54,-6.97,-2.16,7.32
6.827,0.22,-5.17,-1.35,5.34
6.836,1.17,-3.76,-0.04,3.94
6.847,1.74,-2.94,0.56,3.46
6.857,2.15,-2.21,1.02,3.24
6.867,1.85,-1.66,1.39,2.85
6.877,0.88,-1.70,1.98,2.76
6.887,-0.06,-1.94,2.92,3.51
6.897,-0.72,-2.14,3.86,4.47
6.907,-1.35,-2.34,5.13,5.80
6.917,-2.19,-2.56,6.09,6.96
6.927,-3.10,-2.65,6.20,7.43
6.937,-4.08,-2.71,5.78,7.58
6.947,-4.81,-2.51,4.67,7.15
6.957,-5.44,-2.09,1.62,6.05
6.967,-5.47,-1.43,-1.98,5.99
6.977,-3.96,0.19,-1.86,4.38
6.988,-2.55,1.57,0.05,3.00
6.998,-1.45,2.50,1.14,3.11
7.008,-0.48,3.19,1.18,3.43
7.018,-0.04,3.49,1.18,3.68
7.028,0.22,3.47,1.63,3.84
7.038,0.44,3.52,2.45,4.31
7.048,0.76,3.50,3.27,4.85
7.058,0.58,3.20,3.49,4.77
7.068,0.40,2.98,4.19,5.16
7.078,0.67,2.87,5.39,6.14
7.088,0.62,2.72,6.20,6.80
7.098,0.64,2.60,6.47,7.01
7.109,0.72,2.52,6.24,6.76
7.118,0.82,2.48,5.69,6.26
7.129,0.89,2.35,4.86,5.47
7.139,1.00,2.16,3.94,4.61
7.149,1.11,2.06,3.48,4.19
7.159,1.26,2.14,3.70,4.45
7.169,1.52,2.32,4.15,4.99
7.179,1.69,2.45,4.50,5.40
7.189,1.71,2.49,4.69,5.58
7.199,1.66,2.49,4.71,5.59
7.209,1.74,2.48,4.44,5.38
7.219,1.88,2.41,3.97,5.01
7.229,1.84,2.13,3.27,4.31
7.239,1.67,1.49,2.23,3.16
7.249,1.50,0.42,0.35,1.60
7.259,1.63,-1.23,-3.91,4.41
7.270,1.70,-4.08,-12.63,13.38
7.280,0.19,-8.33,-21.75,23.29
7.290,-1.23,-11.84,-23.51,26.35
7.300,-1.13,-12.36,-16.91,20.97
7.310,-1.41,-9.75,-7.68,12.49
7.320,-3.33,-5.06,-0.82,6.11
7.330,-4.32,-1.09,1.52,4.71
7.340,-4.00,1.59,0.78,4.38
7.350,-3.21,3.63,-0.13,4.85
7.360,-2.58,5.61,-0.22,6.18
7.370,-2.43,7.21,0.61,7.63
7.380,-3.10,7.63,2.51,8.61
7.390,-5.28,5.74,5.43,9.50
7.400,-8.03,2.34,8.63,12.02
7.410,-9.74,-0.41,9.53,13.63
7.420,-11.22,-2.18,7.60,13.72
7.431,-11.35,-4.06,-0.84,12.09
7.441,-5.06,-3.56,-4.06,7.40
7.451,-0.32,-0.77,1.68,1.88
7.461,1.28,1.43,5.88,6.19
7.471,1.97,2.87,6.58,7.45
7.481,2.34,3.32,5.19,6.59
7.491,2.75,3.18,4.31,6.02
7.501,2.91,2.30,4.13,5.55
7.511,2.55,0.64,4.12,4.89
7.521,1.41,-1.57,4.21,4.70
7.531,0.28,-3.72,4.34,5.72
7.541,-0.28,-5.32,4.33,6.87
7.551,0.23,-5.90,4.22,7.26
7.562,1.14,-5.39,4.00,6.81
7.572,1.89,-4.39,3.33,5.83
7.582,2.48,-3.10,2.78,4.85
7.592,2.88,-1.77,2.47,4.19
7.602,2.92,-0.61,2.13,3.66
7.612,3.22,0.42,1.83,3.73
7.622,3.58,1.21,1.45,4.05
7.632,3.77,1.86,1.04,4.33
7.642,4.11,2.37,0.68,4.80
7.652,4.40,2.42,0.24,5.03
7.662,4.06,1.90,-0.16,4.49
7.672,3.27,0.99,-0.50,3.45
7.682,2.43,-0.08,-0.83,2.57
7.692,1.77,-0.89,-1.32,2.38
7.702,1.24,-1.06,-2.65,3.11
7.713,0.76,-0.84,-3.86,4.02
7.722,0.96,-0.70,-3.40,3.60
7.733,1.49,-0.58,-2.29,2.79
7.743,1.26,-0.56,-1.37,1.95
7.753,0.71,-0.42,-1.10,1.38
7.763,0.42,-0.33,-1.12,1.24
7.773,0.35,-0.29,-1.31,1.39
7.783,0.23,-0.07,-1.48,1.50
7.793,-0.15,0.25,-1.69,1.71
7.803,-0.54,0.54,-1.96,2.10
7.813,-0.94,0.70,-2.24,2.53
7.823,-1.50,0.42,-2.27,2.75
7.833,-1.91,-0.20,-2.05,2.81
7.843,-1.91,-0.78,-1.83,2.76
7.854,-1.63,-1.11,-1.77,2.65
7.864,-1.32,-1.20,-1.89,2.60
7.874,-0.99,-1.09,-2.14,2.59
7.884,-0.68,-1.11,-2.40,2.73
7.894,-0.43,-1.37,-2.64,3.00
7.904,-0.20,-1.42,-2.85,3.19
7.914,-0.30,-1.37,-3.00,3.31
7.924,-0.75,-1.56,-3.07,3.52
7.934,-0.85,-1.91,-3.27,3.89
7.944,-0.59,-2.55,-3.73,4.56
7.954,-0.20,-3.29,-4.51,5.58
7.964,-0.03,-3.87,-5.83,7.00
7.974,0.18,-3.95,-7.66,8.62
7.984,0.24,-3.43,-9.41,10.02
7.994,-0.47,-3.48,-9.77,10.38
8.004,-1.34,-4.84,-8.28,9.68
8.014,-1.28,-6.19,-6.05,8.75
8.025,-0.77,-6.30,-4.27,7.65
8.035,0.15,-4.68,-3.19,5.67
8.045,1.20,-3.08,-2.14,3.94
8.055,2.14,-2.42,-0.82,3.34
8.065,3.11,-2.06,0.50,3.76
8.075,3.76,-1.75,1.21,4.32
8.085,3.44,-1.53,1.67,4.12
8.095,2.12,-1.83,2.29,3.61
8.105,0.92,-2.37,3.35,4.20
8.115,-0.20,-2.87,4.41,5.27
8.125,-1.22,-3.34,5.40,6.47
8.135,-2.23,-3.76,6.35,7.71
8.145,-3.20,-3.94,6.56,8.29
8.156,-3.81,-3.75,6.31,8.27
8.166,-4.16,-3.10,5.65,7.67
8.176,-4.31,-2.11,2.88,5.60
8.186,-4.20,-0.79,-0.81,4.35
8.196,-3.32,0.85,-0.98,3.56
8.206,-2.67,1.95,0.16,3.31
8.216,-1.92,2.74,0.13,3.35
8.226,-0.96,3.45,-0.56,3.62
8.236,-0.40,3.76,0.51,3.81
8.246,-0.13,3.96,2.18,4.52
8.256,0.60,3.95,3.65,5.41
8.266,0.81,3.60,4.26,5.64
8.276,0.42,3.60,4.59,5.85
8.286,0.54,3.38,5.08,6.12
8.297,0.76,3.28,5.71,6.63
8.306,0.65,3.20,6.39,7.18
8.317,0.31,3.10,6.81,7.49
8.327,0.21,3.02,6.70,7.35
8.337,0.39,3.01,5.99,6.71
8.347,0.53,3.00,4.87,5.75
8.357,0.57,2.98,3.83,4.88
8.367,0.66,3.00,3.48,4.65
8.377,0.77,2.98,3.72,4.83
8.387,0.80,2.94,4.18,5.17
8.397,0.90,2.85,4.50,5.40
8.407,1.07,2.71,4.62,5.46
8.417,1.34,2.55,4.41,5.27
8.427,1.63,2.38,3.86,4.81
8.437,1.89,2.05,3.07,4.15
8.447,1.97,1.45,2.01,3.16
8.458,2.02,0.41,0.06,2.06
8.468,2.18,-1.19,-3.74,4.49
8.478,2.16,-4.07,-11.77,12.63
8.488,0.82,-8.96,-23.12,24.81
8.498,-0.89,-13.80,-27.92,31.15
8.508,-1.86,-15.34,-22.54,27.33
8.518,-3.70,-11.76,-9.28,15.43
8.528,-4.59,-5.86,-0.49,7.46
8.538,-3.96,-1.36,1.76,4.54
8.548,-2.57,1.82,1.27,3.40
8.558,-1.16,4.40,0.27,4.56
8.568,-0.59,6.76,-0.00,6.79
8.578,-1.12,8.25,1.33,8.43
8.588,-2.99,7.34,3.97,8.87
8.599,-5.79,3.79,7.32,10.07
8.609,-8.42,0.36,9.48,12.69
8.619,-10.23,-1.79,9.77,14.26
8.629,-10.88,-2.49,7.03,13.19
8.639,-8.90,-3.48,-3.85,10.31
8.649,-1.96,-1.13,-0.56,2.33
8.659,1.09,1.60,5.24,5.59
8.669,2.11,3.15,6.23,7.29
8.679,2.44,3.77,5.13,6.82
8.689,2.07,3.32,3.88,5.51
8.699,1.49,2.04,3.40,4.24
8.709,0.78,0.05,3.52,3.60
8.719,-0.07,-2.42,3.89,4.58
8.729,-0.80,-4.92,4.33,6.60
8.740,-0.86,-6.49,4.68,8.05
8.750,0.03,-6.55,4.48,7.93
8.760,1.33,-5.65,4.24,7.19
8.770,2.53,-4.28,4.12,6.46
8.780,3.19,-2.53,3.68,5.49
8.790,3.38,-0.91,2.99,4.61
8.800,3.46,0.29,2.42,4.23
8.810,3.74,1.20,1.89,4.36
8.820,3.90,1.93,1.43,4.58
8.830,3.99,2.43,0.95,4.77
8.840,4.15,2.69,0.52,4.97
8.850,4.14,2.56,0.13,4.87
8.860,3.75,2.00,-0.26,4.26
8.870,2.98,1.18,-0.53,3.25
8.880,2.06,0.21,-0.89,2.26
8.890,1.08,-0.39,-1.68,2.03
8.901,-0.18,-0.27,-3.63,3.64
8.911,-0.30,-0.15,-3.91,3.93
8.921,0.72,-0.33,-2.76,2.87
8.931,1.28,-0.53,-1.41,1.97
8.941,0.86,-0.47,-0.77,1.24
8.951,0.39,-0.21,-0.65,0.79
8.961,0.26,0.16,-0.72,0.78
8.971,0.11,0.42,-1.03,1.12
8.981,-0.11,0.40,-1.40,1.46
8.991,-0.55,0.07,-1.67,1.76
9.001,-0.94,-0.47,-1.81,2.09
9.011,-1.07,-1.01,-1.86,2.37
9.021,-1.01,-1.41,-1.89,2.57
9.031,-0.97,-1.68,-1.94,2.74
9.042,-1.10,-1.85,-2.04,2.96
9.052,-1.32,-1.93,-2.22,3.22
9.062,-1.24,-1.89,-2.53,3.39
9.072,-0.68,-1.93,-2.83,3.49
9.082,0.04,-1.83,-3.28,3.76
9.092,0.37,-1.35,-4.73,4.94
9.102,-0.25,-0.53,-8.89,8.91
9.112,-1.50,-0.44,-13.00,13.10
9.122,-1.71,-1.69,-10.82,11.09
9.132,-0.84,-3.27,-6.63,7.44
9.142,0.38,-4.35,-4.14,6.02
9.152,2.15,-5.51,-2.39,6.38
9.162,2.40,-7.08,-1.83,7.70
9.173,1.15,-8.53,-2.97,9.10
9.183,-0.07,-9.25,-4.71,10.38
9.193,-0.18,-7.07,-5.57,9.00
9.203,0.76,-4.01,-4.70,6.22
9.213,1.47,-2.62,-2.77,4.08
9.223,1.46,-2.03,-0.68,2.59
9.233,1.71,-1.46,0.73,2.36
9.243,1.43,-1.07,1.99,2.68
9.253,0.89,-1.17,3.00,3.34
9.263,0.46,-1.53,3.87,4.19
9.273,-0.16,-2.03,4.88,5.29
9.283,-1.03,-2.75,6.36,7.00
9.293,-2.16,-3.32,6.83,7.89
9.303,-3.20,-3.59,6.59,8.16
9.313,-4.10,-3.53,6.10,8.16
9.323,-4.70,-3.04,4.50,7.18
9.333,-5.48,-2.25,0.99,6.01
9.344,-5.41,-0.95,-1.01,5.59
9.354,-4.31,0.60,-0.31,4.36
9.364,-3.04,1.69,1.08,3.64
9.374,-1.64,2.72,1.94,3.72
9.384,-0.55,3.61,2.05,4.19
9.394,0.20,4.10,1.75,4.46
9.404,0.71,4.32,1.55,4.65
9.414,0.79,4.27,2.36,4.94
9.424,0.64,4.04,3.52,5.40
9.434,0.85,3.69,3.91,5.45
9.444,0.82,3.58,4.31,5.66
9.454,0.40,3.40,5.11,6.15
9.464,0.45,3.01,5.79,6.54
9.474,0.62,2.70,6.15,6.74
9.485,0.59,2.55,6.26,6.79
9.495,0.55,2.51,5.96,6.49
9.505,0.42,2.51,5.05,5.66
9.515,0.49,2.47,3.92,4.66
9.525,0.39,2.41,3.14,3.98
9.535,0.22,2.46,3.17,4.02
9.545,0.15,2.62,3.64,4.49
9.555,0.29,2.87,4.04,4.96
9.565,0.43,2.99,4.23,5.20
9.575,0.50,2.93,4.17,5.12
9.585,0.72,2.87,3.94,4.93
9.595,1.00,2.82,3.45,4.57
9.605,1.21,2.62,2.71,3.96
9.615,1.32,2.16,1.58,2.98
9.626,1.48,1.32,-0.27,2.00
9.635,2.10,-0.04,-3.55,4.12
9.646,3.22,-2.30,-9.66,10.44
9.656,2.87,-6.64,-19.83,21.11
9.666,0.71,-12.34,-27.95,30.56
9.676,-1.07,-15.17,-22.58,27.23
9.686,-2.96,-13.83,-11.07,17.96
9.696,-4.99,-9.38,-2.78,10.98
9.706,-4.94,-4.24,1.01,6.59
9.716,-3.51,-0.40,1.25,3.75
9.726,-1.87,3.05,0.15,3.58
9.736,-0.51,6.10,-0.27,6.13
9.746,0.06,8.59,0.56,8.61
9.756,0.62,9.87,2.54,10.21
9.767,0.87,10.10,4.34,11.02
9.777,-0.62,8.21,6.31,10.37
9.787,-3.24,4.84,8.00,9.89
9.797,-5.92,1.42,8.71,10.63
9.807,-8.77,-1.92,9.22,12.87
9.817,-12.06,-5.01,8.81,15.75
9.827,-13.42,-9.37,-1.61,16.44
9.837,-6.72,-8.41,-2.22,10.99
9.847,-0.86,-3.26,2.50,4.19
9.857,0.84,0.28,3.87,3.97
9.867,1.50,2.36,3.81,4.73
9.877,0.95,2.95,3.49,4.66
9.887,0.41,2.42,3.15,3.99
9.897,-0.10,1.09,3.02,3.22
9.907,-0.78,-0.64,2.98,3.15
9.917,-0.70,-2.49,3.02,3.98
9.928,-0.08,-3.78,3.21,4.96
9.938,0.83,-3.85,3.16,5.05
9.948,1.55,-3.19,3.11,4.72
9.958,2.04,-2.42,3.25,4.54
9.968,2.08,-1.45,3.09,4.00
9.978,2.16,-0.39,2.71,3.49
9.988,2.48,0.37,2.38,3.46
9.998,2.79,0.95,2.06,3.59
10.008,3.15,1.39,1.82,3.89
10.018,3.54,1.72,1.56,4.23
10.028,3.82,2.01,1.25,4.49
10.038,3.89,2.12,0.93,4.53
10.048,3.79,1.90,0.58,4.28
10.058,3.45,1.40,0.32,3.74
10.069,2.94,0.77,0.14,3.04
10.079,2.56,0.11,-0.04,2.56
10.089,2.50,-0.45,-0.27,2.56
10.099,2.45,-0.81,-0.48,2.63
10.109,2.21,-0.98,-0.81,2.55
10.119,1.74,-0.95,-1.28,2.36
10.129,1.10,-0.59,-2.12,2.47
10.139,0.75,-0.18,-2.65,2.76
10.149,0.96,-0.13,-2.56,2.74
10.159,0.96,-0.24,-2.32,2.52
10.169,0.65,-0.41,-2.22,2.35
10.179,0.25,-0.64,-2.17,2.27
10.189,-0.13,-0.96,-2.10,2.31
10.199,-0.61,-1.34,-2.01,2.49
10.210,-1.18,-1.75,-2.09,2.97
10.219,-1.61,-2.14,-2.33,3.55
10.230,-2.11,-2.41,-2.78,4.24
10.240,-2.60,-2.44,-3.80,5.20
10.250,-2.60,-2.12,-5.65,6.58
10.260,-2.30,-1.80,-8.31,8.81
10.270,-2.05,-1.32,-9.63,9.93
10.280,-1.88,-0.93,-8.75,9.00
10.290,-1.74,-1.31,-6.99,7.32
10.300,-1.42,-2.10,-5.21,5.80
10.310,-0.53,-2.81,-3.96,4.88
10.320,0.27,-3.25,-3.69,4.92
10.330,1.10,-3.32,-4.40,5.62
10.340,2.07,-3.15,-6.17,7.23
10.350,2.21,-3.44,-9.57,10.40
10.361,0.29,-5.07,-11.96,12.99
10.371,-1.31,-6.97,-9.67,12.00
10.381,-0.58,-6.99,-5.49,8.91
10.391,-0.18,-5.62,-3.01,6.38
10.401,0.43,-4.08,-1.09,4.24
10.411,1.29,-3.44,1.58,4.00
10.421,1.97,-3.55,2.53,4.78
10.431,2.41,-3.94,2.48,5.24
10.441,1.86,-4.32,3.24,5.72
10.451,0.88,-4.64,4.61,6.60
10.461,-0.33,-4.99,5.98,7.79
10.471,-1.69,-5.26,7.84,9.59
10.481,-2.58,-5.27,9.29,10.99
10.491,-3.49,-4.92,8.50,10.42
10.501,-3.81,-4.22,6.92,8.96
10.512,-4.09,-3.30,5.50,7.61
10.522,-4.23,-2.12,2.43,5.32
10.532,-3.81,-0.70,-1.55,4.17
10.542,-2.78,0.85,-1.07,3.10
10.552,-2.51,1.84,0.25,3.12
10.562,-1.94,2.72,-0.48,3.38
10.572,-0.81,3.56,-1.44,3.92
10.582,-0.29,4.07,0.70,4.14
10.592,-0.47,4.39,2.89,5.28
10.602,-0.15,4.58,3.86,5.99
10.612,0.26,4.38,4.61,6.36
10.622,0.23,4.28,4.97,6.56
10.633,-0.11,4.09,5.23,6.64
10.642,-0.31,4.07,6.28,7.49
10.653,-0.09,4.07,7.54,8.57
10.663,0.15,3.99,8.39,9.29
10.673,0.07,3.96,8.68,9.55
10.683,-0.03,4.07,8.26,9.21
10.693,0.03,4.15,7.33,8.43
10.703,0.16,4.14,6.23,7.48
10.713,0.18,4.09,5.16,6.59
10.723,0.20,3.89,4.62,6.04
10.733,0.37,3.61,4.63,5.89
10.743,0.53,3.26,4.89,5.90
10.753,0.72,3.00,5.03,5.90
10.763,0.98,2.75,4.79,5.61
10.773,1.28,2.46,4.24,5.07
10.783,1.55,1.95,3.36,4.19
10.794,1.77,0.98,1.82,2.72
10.803,2.16,-0.57,-0.88,2.40
10.814,2.89,-3.14,-7.88,8.96
10.824,2.65,-9.64,-28.79,30.47
10.834,-1.06,-17.51,-39.76,43.45
10.844,-1.97,-18.89,-25.30,31.64
10.854,-2.66,-13.98,-7.34,16.01
10.864,-3.72,-7.18,1.15,8.17
10.874,-3.85,-2.23,2.91,5.32
10.884,-2.96,0.97,1.85,3.63
10.894,-1.76,4.09,0.07,4.45
10.904,-1.36,7.09,-1.24,7.33
10.914,-2.20,8.65,-0.37,8.93
10.924,-4.82,6.77,3.98,9.21
10.934,-7.84,3.03,9.21,12.46
10.944,-10.62,0.41,10.50,14.94
10.955,-11.57,-0.46,9.63,15.06
10.964,-10.24,0.22,6.70,12.24
10.975,-6.76,0.01,1.22,6.86
10.985,-2.50,0.56,4.67,5.33
10.995,-0.89,1.57,6.64,6.88
11.005,-0.09,1.98,5.64,5.97
11.015,0.37,1.91,4.38,4.79
11.025,0.43,1.40,3.51,3.81
11.035,-0.02,0.29,3.12,3.13
11.045,-0.29,-1.33,3.39,3.66
11.055,-0.45,-3.17,3.81,4.98
11.065,-0.50,-4.61,3.99,6.12
11.075,-0.16,-5.15,4.09,6.57
11.085,0.49,-4.88,3.91,6.27
11.096,1.55,-3.97,3.79,5.70
11.106,2.66,-2.61,3.68,5.24
11.116,3.11,-1.30,3.21,4.66
11.126,3.55,-0.16,2.59,4.40
11.136,4.06,0.82,2.14,4.67
11.146,4.55,1.42,1.79,5.09
11.156,4.91,1.85,1.50,5.46
11.166,5.02,2.09,1.14,5.56
11.176,4.86,2.05,0.72,5.32
11.186,4.52,1.71,0.30,4.84
11.196,4.14,1.06,-0.00,4.27
11.206,3.77,0.20,-0.28,3.79
11.216,3.37,-0.81,-1.07,3.63
11.226,2.65,-1.64,-2.63,4.08
11.237,2.14,-2.01,-3.38,4.47
11.247,2.27,-1.90,-3.17,4.34
11.257,2.17,-1.73,-2.59,3.80
11.267,1.66,-1.43,-2.16,3.08
11.277,1.21,-0.68,-2.09,2.51
11.287,1.14,0.01,-2.08,2.37
11.297,1.06,0.31,-2.14,2.41
11.307,0.85,0.14,-2.36,2.51
11.317,0.53,-0.37,-2.73,2.80
11.327,0.31,-0.71,-2.87,2.97
11.337,0.05,-0.78,-2.87,2.98
11.347,-0.38,-0.86,-2.77,2.93
11.357,-0.95,-0.93,-2.64,2.96
11.367,-1.54,-1.06,-2.67,3.26
11.377,-2.16,-1.35,-2.83,3.81
11.387,-2.69,-1.71,-2.88,4.30
11.398,-2.85,-1.90,-2.90,4.49
11.408,-2.47,-1.87,-3.49,4.67
11.418,-1.82,-1.42,-5.78,6.22
11.428,-1.77,-0.70,-9.09,9.28
11.438,-2.22,-0.40,-9.65,9.92
11.448,-2.23,-1.08,-6.92,7.35
11.458,-1.52,-2.54,-4.04,5.01
11.468,-0.09,-3.69,-2.29,4.34
11.478,1.01,-4.48,-2.19,5.09
11.488,1.25,-4.77,-3.31,5.94
11.498,1.22,-4.26,-5.49,7.06
11.508,-0.53,-5.11,-9.71,10.98
11.518,-2.11,-6.85,-11.27,13.36
11.529,-1.13,-6.96,-8.55,11.08
11.539,0.53,-5.53,-5.41,7.75
11.549,1.51,-4.13,-2.40,5.01
11.559,2.03,-3.46,0.16,4.01
11.569,2.72,-3.14,1.85,4.55
11.579,2.61,-2.92,2.55,4.67
11.589,1.94,-3.02,3.26,4.85
11.599,1.11,-3.40,4.11,5.45
11.609,0.37,-3.68,5.06,6.27
11.619,-0.56,-3.96,6.15,7.34
11.629,-1.41,-4.17,7.25,8.48
11.639,-2.41,-4.27,7.51,8.96
11.649,-3.00,-3.93,6.90,8.49
11.659,-3.44,-3.30,5.96,7.63
11.669,-3.86,-2.43,5.14,6.88
11.680,-4.14,-1.47,1.89,4.78
11.690,-3.61,-0.06,-1.41,3.87
11.700,-2.70,1.46,-0.61,3.13
11.710,-2.08,2.40,1.13,3.37
11.720,-1.43,3.25,1.13,3.73
11.730,-0.33,3.78,-0.78,3.88
11.740,-0.16,3.95,-0.17,3.95
11.750,-0.38,3.92,1.95,4.39
11.760,0.43,3.80,3.70,5.33
11.770,0.48,3.84,4.99,6.31
11.780,0.37,3.75,5.55,6.71
11.790,0.19,3.53,5.82,6.81
11.800,-0.08,3.34,6.56,7.36
11.810,-0.08,3.20,7.63,8.27
11.820,0.02,3.25,8.38,8.98
11.830,-0.04,3.34,8.34,8.98
11.841,-0.18,3.41,7.52,8.26
11.851,-0.25,3.38,6.34,7.18
11.861,-0.25,3.32,5.20,6.17
11.871,-0.19,3.32,4.56,5.65
11.881,-0.04,3.34,4.54,5.64
11.891,0.11,3.32,4.88,5.90
11.901,0.44,3.34,5.10,6.11
11.911,0.89,3.53,4.96,6.15
11.921,1.33,3.74,4.51,6.00
11.931,1.70,3.55,3.83,5.49
11.941,1.87,2.83,2.86,4.44
11.951,1.95,1.55,1.19,2.76
11.961,2.29,-0.36,-2.65,3.51
11.971,3.11,-4.95,-18.77,19.66
11.982,0.38,-14.85,-43.00,45.49
11.992,-1.63,-20.15,-34.65,40.12
12.002,-1.97,-17.56,-12.50,21.64
12.012,-2.47,-10.77,0.60,11.07
12.022,-2.81,-4.56,4.33,6.89
12.032,-2.16,-0.42,2.70,3.48
12.042,-0.80,2.98,0.44,3.12
12.052,-0.13,6.22,-1.51,6.40
12.062,-0.79,8.44,-1.32,8.58
12.072,-2.91,7.61,2.53,8.53
12.082,-5.60,3.26,7.91,10.23
12.092,-9.30,-0.27,10.05,13.69
12.102,-11.66,-1.65,9.91,15.39
12.112,-11.41,-1.26,8.45,14.25
12.123,-8.10,-0.88,1.82,8.35
12.133,-3.22,0.07,2.43,4.03
12.143,-1.20,1.51,5.58,5.91
12.153,-0.21,2.31,5.28,5.77
12.163,0.79,2.63,4.22,5.04
12.173,1.01,2.27,3.13,3.99
12.183,0.47,1.19,2.57,2.87
12.193,-0.32,-0.51,2.69,2.76
12.203,-0.84,-2.47,3.05,4.01
12.213,-0.88,-4.22,3.12,5.32
12.223,-0.61,-5.26,3.23,6.21
12.233,0.08,-5.13,3.26,6.08
12.243,1.27,-4.00,3.24,5.31
12.253,2.81,-2.67,3.59,5.29
12.263,3.60,-1.40,3.51,5.22
12.274,3.82,-0.25,2.93,4.83
12.284,4.08,0.62,2.44,4.80
12.293,4.48,1.25,1.95,5.04
12.304,4.78,1.62,1.58,5.29
12.314,5.00,1.90,1.25,5.49
12.324,4.88,2.07,0.92,5.38
12.334,4.52,1.97,0.64,4.97
12.344,4.14,1.54,0.45,4.44
12.354,3.74,0.95,0.20,3.87
12.364,3.10,0.33,-0.75,3.21
12.374,2.42,-0.44,-1.89,3.10
12.384,2.26,-1.08,-2.35,3.43
12.394,2.27,-1.56,-2.24,3.55
12.404,2.10,-1.67,-1.95,3.32
12.414,1.35,-1.31,-1.75,2.57
12.424,0.84,-0.89,-1.60,2.01
12.435,0.82,-0.46,-1.56,1.82
12.445,0.96,-0.24,-1.56,1.85
12.455,0.81,-0.41,-1.64,1.88
12.465,0.44,-0.70,-2.10,2.26
12.475,-0.08,-0.83,-2.48,2.62
12.485,-1.06,-1.00,-2.83,3.18
12.495,-2.14,-1.48,-2.81,3.83
12.505,-2.83,-1.99,-2.49,4.26
12.515,-2.89,-2.26,-2.26,4.31
12.525,-2.31,-2.07,-2.51,3.99
12.535,-1.45,-1.27,-4.15,4.57
12.545,-1.17,-0.48,-7.16,7.27
12.555,-1.75,-0.21,-9.42,9.58
12.566,-2.66,-0.19,-8.91,9.30
12.575,-2.76,-0.67,-6.43,7.03
12.586,-2.07,-1.86,-4.03,4.90
12.596,-1.10,-3.09,-2.74,4.28
12.606,-0.16,-3.92,-2.41,4.60
12.616,1.02,-4.78,-2.34,5.42
12.626,1.68,-5.27,-3.42,6.50
12.636,1.55,-5.60,-5.73,8.16
12.646,0.27,-6.96,-9.17,11.52
12.656,-1.61,-8.05,-10.55,13.37
12.666,-1.94,-6.86,-8.68,11.23
12.676,-0.34,-4.40,-5.85,7.33
12.686,1.41,-3.11,-2.17,4.05
12.696,2.43,-2.92,0.18,3.80
12.706,2.82,-2.69,1.62,4.22
12.717,2.62,-2.41,2.51,4.35
12.727,2.20,-2.41,3.07,4.48
12.737,1.60,-2.75,3.75,4.92
12.747,0.86,-3.01,4.69,5.64
12.757,-0.13,-3.28,5.79,6.66
12.767,-1.12,-3.68,7.22,8.17
12.777,-2.11,-3.92,7.85,9.02
12.787,-3.06,-3.88,6.97,8.55
12.797,-3.69,-3.43,6.02,7.85
12.807,-4.04,-2.50,5.23,7.07
12.817,-4.39,-1.49,2.01,5.05
12.827,-4.03,0.11,-1.03,4.16
12.837,-3.02,1.60,-0.27,3.43
12.847,-2.42,2.45,1.09,3.60
12.857,-1.63,3.25,1.03,3.78
12.868,-0.60,3.84,-0.19,3.89
12.877,-0.27,3.85,0.73,3.92
12.888,-0.10,3.91,2.24,4.50
12.898,0.69,3.73,3.53,5.18
12.908,0.80,3.61,4.74,6.01
12.918,0.57,3.33,5.14,6.15
12.928,0.36,2.93,5.70,6.42
12.938,0.38,2.72,6.59,7.14
12.948,0.38,2.79,7.48,7.99
12.958,0.35,2.90,8.11,8.62
12.968,0.28,3.03,8.09,8.65
12.978,0.17,3.18,7.22,7.89
12.988,0.11,3.34,5.80,6.69
12.998,0.01,3.54,4.53,5.75
13.009,-0.01,3.67,4.09,5.49
13.018,0.05,3.70,4.39,5.74
13.029,0.16,3.62,4.95,6.14
13.039,0.30,3.53,5.33,6.40
13.049,0.46,3.47,5.29,6.34
13.059,0.74,3.37,4.85,5.95
13.069,1.04,3.12,4.16,5.30
13.079,1.18,2.54,3.31,4.34
13.089,1.28,1.49,1.88,2.72
13.099,1.61,-0.15,-1.20,2.01
13.109,2.49,-3.39,-11.55,12.29
13.119,2.10,-12.21,-38.10,40.06
13.130,-1.60,-20.62,-42.42,47.20
13.139,-2.95,-20.28,-21.11,29.42
13.149,-3.54,-13.02,-1.96,13.63
13.159,-3.46,-5.78,4.27,7.97
13.170,-2.97,-1.26,4.84,5.81
13.180,-1.15,2.29,2.72,3.74
13.190,0.31,5.88,-0.22,5.89
13.200,0.74,8.75,-0.79,8.82
13.210,0.47,10.01,1.83,10.19
13.220,-1.26,8.04,5.50,9.82
13.230,-4.70,4.29,8.30,10.46
13.240,-8.59,0.98,8.76,12.30
13.250,-11.34,-1.36,8.98,14.53
13.260,-11.90,-2.32,8.85,15.01
13.270,-8.38,-2.59,5.36,10.28
13.280,-4.36,-2.67,2.43,5.66
13.291,-2.05,-0.80,3.64,4.25
13.300,-0.97,0.84,3.99,4.19
13.311,-0.49,1.62,3.60,3.97
13.321,-0.49,1.59,3.03,3.46
13.331,-0.90,0.76,2.45,2.71
13.341,-1.09,-0.47,2.21,2.51
13.351,-0.75,-1.79,2.66,3.29
13.361,-0.11,-3.01,2.88,4.17
13.371,0.43,-3.46,2.90,4.53
13.381,1.21,-3.10,2.91,4.42
13.391,2.18,-2.45,2.98,4.43
13.401,2.91,-1.65,3.02,4.51
13.411,3.38,-0.72,2.58,4.31
13.421,3.82,0.08,2.12,4.37
13.431,4.01,0.69,1.68,4.40
13.441,4.13,1.08,1.26,4.45
13.452,4.21,1.39,0.86,4.52
13.461,4.39,1.60,0.54,4.70
13.472,4.42,1.57,0.23,4.70
13.482,4.15,1.24,-0.09,4.34
13.492,3.92,0.68,-0.33,3.99
13.502,3.65,0.01,-0.89,3.76
13.512,3.08,-0.79,-2.29,3.92
13.522,2.61,-1.32,-3.01,4.19
13.532,2.58,-1.34,-2.88,4.10
13.542,2.27,-1.53,-2.39,3.64
13.552,1.61,-1.52,-2.00,2.99
13.562,1.00,-1.02,-1.95,2.41
13.572,0.90,-0.44,-2.02,2.25
13.582,1.06,-0.08,-2.12,2.37
13.593,1.10,-0.09,-2.33,2.58
13.602,0.75,-0.46,-2.52,2.67
13.613,0.30,-0.93,-2.63,2.80
13.623,0.06,-1.20,-2.74,2.99
13.633,-0.25,-1.30,-2.70,3.01
13.643,-0.67,-1.37,-2.61,3.02
13.653,-1.10,-1.35,-2.64,3.16
13.663,-1.46,-1.32,-2.85,3.47
13.673,-1.72,-1.33,-3.04,3.74
13.683,-1.92,-1.28,-3.54,4.23
13.693,-2.23,-0.97,-5.64,6.14
13.703,-3.09,-0.27,-10.26,10.72
13.713,-3.93,0.01,-12.07,12.69
13.723,-3.51,-0.66,-8.35,9.09
13.733,-2.24,-1.92,-4.71,5.56
13.743,-0.98,-2.97,-3.20,4.48
13.754,0.12,-3.56,-2.70,4.47
13.764,0.75,-3.95,-3.43,5.28
13.774,0.26,-4.71,-5.55,7.28
13.784,-1.28,-6.37,-8.65,10.82
13.794,-3.07,-7.76,-10.15,13.14
13.804,-2.78,-7.26,-8.35,11.40
13.814,-0.11,-5.79,-5.04,7.68
13.824,2.06,-4.80,-1.20,5.36
13.834,2.64,-4.14,1.74,5.21
13.844,2.49,-3.62,2.79,5.21
13.854,2.00,-3.46,3.37,5.23
13.864,1.36,-3.69,4.32,5.84
13.874,0.69,-3.91,5.61,6.88
13.884,-0.30,-4.28,7.12,8.31
13.895,-1.10,-4.70,8.55,9.82
13.904,-1.95,-4.95,8.81,10.29
13.915,-2.77,-4.91,7.54,9.41
13.925,-3.25,-4.36,6.46,8.45
13.935,-3.50,-3.39,5.64,7.46
13.945,-3.99,-2.38,2.86,5.46
13.955,-3.82,-0.98,-1.21,4.13
13.965,-2.76,0.89,-1.29,3.17
13.975,-2.28,2.04,0.40,3.09
13.985,-1.56,2.99,1.51,3.70
13.995,-0.26,3.97,0.14,3.98
14.005,0.03,4.23,-1.27,4.42
14.015,-0.24,4.40,0.57,4.44
14.025,0.29,4.24,2.70,5.04
14.036,0.64,4.18,4.49,6.17
14.045,0.41,4.21,5.39,6.85
14.056,0.40,4.15,5.59,6.97
14.066,0.38,3.91,5.95,7.13
14.076,0.23,3.63,7.02,7.91
14.086,0.12,3.47,7.95,8.67
14.096,-0.06,3.49,8.18,8.89
14.106,-0.41,3.59,7.65,8.46
14.116,-0.56,3.70,6.59,7.58
14.126,-0.53,3.79,5.39,6.62
14.136,-0.51,3.84,4.56,5.98
14.146,-0.45,3.82,4.31,5.77
14.156,-0.26,3.72,4.51,5.85
14.166,0.07,3.54,4.90,6.04
14.176,0.40,3.32,5.16,6.15
14.186,0.76,3.07,5.06,5.97
14.197,1.12,2.77,4.56,5.45
14.207,1.34,2.35,3.77,4.64
14.217,1.37,1.53,2.64,3.34
14.227,1.37,0.17,0.60,1.51
14.237,1.55,-1.93,-4.02,4.72
14.247,1.67,-6.85,-20.81,21.97
14.257,-0.67,-15.39,-39.67,42.56
14.267,-1.41,-19.63,-32.76,38.21
14.277,-1.31,-16.09,-11.76,19.97
14.287,-1.95,-9.17,0.80,9.41
14.297,-2.91,-3.30,4.47,6.27
14.307,-2.47,0.68,4.34,5.04
14.317,-0.82,3.57,2.49,4.43
14.327,0.03,6.25,0.18,6.25
14.337,0.09,8.32,-0.17,8.32
14.347,-1.37,8.13,2.40,8.59
14.358,-4.80,4.66,6.48,9.31
14.368,-8.47,0.87,9.05,12.43
14.378,-11.43,-1.52,9.09,14.68
14.388,-12.35,-2.22,7.82,14.78
14.398,-9.79,-2.12,-0.97,10.06
14.408,-3.89,-0.86,-1.65,4.31
14.418,-0.88,1.37,4.87,5.13
14.428,0.44,2.75,6.22,6.82
14.438,1.44,3.25,5.04,6.17
14.448,1.30,2.93,3.60,4.83
14.458,0.91,2.01,2.84,3.60
14.468,0.38,0.29,2.48,2.53
14.479,-0.09,-1.91,2.52,3.17
14.488,-0.49,-4.10,3.15,5.19
14.499,-0.52,-5.54,3.70,6.68
14.509,0.15,-5.82,4.07,7.10
14.519,1.20,-5.00,4.18,6.63
14.529,2.09,-3.51,4.32,5.94
14.539,2.84,-1.82,3.88,5.14
14.549,3.23,-0.37,3.14,4.52
14.559,3.51,0.64,2.50,4.36
14.569,3.85,1.35,2.11,4.59
14.579,4.25,1.72,1.74,4.91
14.589,4.21,1.80,1.21,4.73
14.599,4.11,1.67,0.74,4.50
14.609,3.93,1.38,0.43,4.19
14.619,3.47,0.83,0.17,3.58
14.629,2.86,0.24,-0.11,2.88
14.640,2.26,-0.41,-0.42,2.34
14.650,1.87,-0.66,-1.08,2.26
14.660,1.58,-0.43,-2.42,2.92
14.670,1.68,-0.32,-2.75,3.24
14.680,2.25,-0.31,-2.25,3.19
14.690,2.28,-0.42,-1.48,2.75
14.700,1.40,-0.35,-1.11,1.81
14.710,0.71,-0.17,-0.94,1.19
14.720,0.58,0.06,-0.89,1.07
14.730,0.71,0.05,-0.98,1.21
14.740,0.67,-0.21,-1.10,1.31
14.750,0.38,-0.46,-1.32,1.45
14.760,0.11,-0.59,-1.54,1.66
14.770,-0.13,-0.49,-1.61,1.69
14.781,-0.41,-0.34,-1.57,1.66
14.790,-0.69,-0.31,-1.52,1.69
14.801,-0.92,-0.35,-1.50,1.80
14.811,-1.18,-0.42,-1.63,2.06
14.821,-1.49,-0.57,-1.81,2.41
14.831,-1.73,-0.84,-1.89,2.70
14.841,-1.70,-1.11,-2.04,2.88
14.851,-1.31,-1.25,-2.32,2.94
14.861,-0.83,-1.12,-2.75,3.09
14.871,-0.62,-0.72,-3.78,3.89
14.881,-0.92,-0.53,-7.08,7.15
14.891,-1.48,-1.39,-10.68,10.87
14.901,-1.16,-2.75,-10.03,10.46
14.911,-0.31,-3.47,-6.87,7.71
14.922,0.35,-3.59,-5.15,6.29
14.932,0.78,-3.49,-4.83,6.01
14.942,1.09,-3.00,-5.18,6.09
14.952,0.80,-3.29,-5.70,6.63
14.962,0.07,-5.03,-5.74,7.63
14.972,-0.51,-6.32,-5.68,8.51
14.982,-0.91,-6.28,-4.98,8.06
14.992,-1.17,-5.33,-4.26,6.92
15.002,0.04,-4.07,-2.87,4.98
15.012,1.96,-3.48,-0.29,4.01
15.022,2.93,-3.13,1.37,4.50
15.032,2.87,-2.63,1.87,4.32
15.042,2.07,-2.38,2.47,4.00
15.052,1.25,-2.46,3.59,4.53
15.063,0.41,-2.64,4.71,5.41
15.072,-0.67,-3.04,5.81,6.59
15.083,-1.77,-3.50,6.79,7.84
15.093,-2.66,-3.71,7.11,8.45
15.103,-3.17,-3.60,6.69,8.23
15.113,-3.70,-3.15,5.83,7.59
15.123,-4.16,-2.51,3.93,6.25
15.133,-4.16,-1.75,0.72,4.57
15.143,-2.95,-0.21,-0.41,2.99
15.153,-1.73,1.22,0.66,2.22
15.163,-1.34,2.05,1.79,3.04
15.173,-0.73,2.76,1.44,3.20
15.183,0.08,3.11,-0.60,3.17
15.193,0.27,3.21,-0.50,3.26
15.204,-0.18,3.38,1.52,3.71
15.213,-0.22,3.53,3.54,5.00
15.224,0.32,3.52,4.66,5.84
15.234,0.51,3.32,4.65,5.74
15.244,0.14,3.03,4.81,5.69
15.254,-0.42,2.84,5.05,5.81
15.264,-0.78,2.74,5.60,6.28
15.274,-0.68,2.75,6.30,6.91
15.284,-0.44,2.81,6.59,7.18
15.294,-0.31,2.90,6.25,6.89
15.304,-0.38,2.99,5.49,6.26
15.314,-0.42,3.10,4.74,5.68
15.324,-0.38,3.32,4.33,5.47
15.334,-0.27,3.59,4.38,5.67
15.344,-0.07,3.73,4.71,6.01
15.354,0.07,3.67,5.10,6.28
15.364,0.25,3.51,5.38,6.43
15.374,0.50,3.35,5.35,6.33
15.385,0.85,3.28,4.86,5.92
15.395,1.26,3.08,3.99,5.20
15.405,1.61,2.56,2.86,4.16
15.415,1.81,1.55,1.20,2.66
15.425,2.29,0.00,-1.93,2.99
15.435,3.57,-2.81,-10.33,11.28
15.445,4.29,-10.05,-31.86,33.68
15.455,0.34,-17.13,-36.69,40.50
15.465,-1.75,-17.17,-17.12,24.31
15.475,-1.88,-13.02,-3.19,13.54
15.485,-2.60,-7.36,1.46,7.94
15.495,-3.18,-2.69,1.33,4.37
15.505,-2.46,0.88,-0.56,2.67
15.516,-1.40,4.29,-2.37,5.09
15.526,-0.70,7.26,-2.58,7.73
15.536,-0.78,9.05,0.40,9.09
15.546,-1.61,8.06,5.45,9.86
15.556,-3.94,4.42,8.69,10.52
15.566,-8.13,0.88,8.89,12.08
15.576,-11.18,-2.32,8.47,14.21
15.586,-12.80,-4.15,8.09,15.70
15.596,-10.83,-4.91,2.43,12.13
15.606,-5.15,-4.30,-0.73,6.75
15.616,-1.30,-1.17,3.47,3.89
15.626,0.16,1.27,4.81,4.98
15.636,1.17,2.77,3.80,4.84
15.646,1.52,3.38,2.48,4.46
15.657,1.47,3.16,1.85,3.94
15.667,1.27,2.15,1.47,2.90
15.677,1.02,0.58,1.52,1.92
15.687,0.96,-1.27,1.87,2.46
15.697,1.24,-2.76,2.00,3.63
15.707,1.51,-3.46,2.15,4.35
15.717,2.23,-3.47,2.58,4.86
15.727,2.73,-3.08,3.05,5.12
15.737,2.82,-2.48,3.10,4.87
15.747,2.90,-1.64,2.81,4.36
15.757,3.13,-0.80,2.46,4.07
15.767,3.37,-0.20,2.09,3.97
15.777,3.53,0.31,1.71,3.93
15.787,3.67,0.58,1.38,3.96
15.797,3.83,0.63,0.92,3.99
15.808,3.95,0.60,0.44,4.01
15.818,3.66,0.46,-0.00,3.69
15.828,3.22,0.26,-0.36,3.25
15.838,2.81,0.05,-0.77,2.92
15.848,2.39,-0.12,-1.07,2.62
15.858,2.09,-0.13,-1.39,2.51
15.868,2.03,0.24,-1.67,2.64
15.878,2.02,0.42,-1.58,2.60
15.888,1.88,0.51,-1.32,2.36
15.898,1.57,0.73,-1.17,2.09
15.908,1.16,0.88,-1.11,1.84
15.918,0.72,0.82,-1.11,1.56
15.928,0.35,0.54,-1.07,1.25
15.938,-0.03,0.13,-1.07,1.08
15.948,-0.35,-0.23,-1.10,1.17
15.959,-0.69,-0.58,-1.11,1.43
15.969,-1.00,-0.85,-1.20,1.78
15.979,-1.24,-1.06,-1.24,2.05
15.989,-1.58,-1.25,-1.23,2.36
15.999,-1.99,-1.35,-1.32,2.75
16.009,-2.41,-1.28,-1.48,3.10
16.019,-2.47,-1.12,-1.62,3.16
16.029,-2.03,-0.87,-1.78,2.84
16.039,-1.22,-0.70,-2.14,2.56
16.049,-0.38,-0.72,-2.54,2.67
16.059,0.20,-0.69,-2.89,2.97
16.069,0.27,-0.38,-3.22,3.25
16.079,-0.21,-0.12,-3.53,3.54
16.089,-0.90,-0.35,-4.42,4.52
16.100,-1.27,-1.38,-6.22,6.49
16.110,-1.06,-2.88,-8.63,9.16
16.120,-0.49,-4.10,-10.72,11.49
16.130,0.09,-4.57,-11.43,12.31
16.140,0.44,-4.38,-10.88,11.74
16.150,0.20,-4.86,-9.13,10.34
16.160,0.11,-6.19,-6.46,8.94
16.170,0.97,-6.68,-3.37,7.55
16.180,1.29,-6.57,-1.40,6.84
16.190,0.22,-5.33,-0.80,5.40
16.200,-0.62,-3.73,-1.41,4.04
16.210,1.20,-2.93,-0.17,3.17
16.220,2.64,-2.97,1.25,4.17
16.230,3.22,-2.75,1.89,4.63
16.240,2.56,-2.63,2.62,4.51
16.251,1.40,-2.83,3.35,4.60
16.261,0.24,-3.15,4.12,5.20
16.271,-0.74,-3.59,4.96,6.16
16.281,-2.13,-3.97,5.88,7.41
16.291,-3.36,-4.01,6.39,8.25
16.301,-4.16,-3.78,6.15,8.33
16.311,-4.88,-3.33,5.33,7.96
16.321,-5.10,-2.91,2.14,6.25
16.331,-3.76,-1.56,-0.42,4.09
16.341,-1.82,0.41,0.20,1.87
16.351,-1.30,1.62,1.65,2.65
16.361,-1.41,2.73,3.76,4.86
16.371,0.21,4.29,0.34,4.31
16.381,0.39,4.73,-1.47,4.97
16.392,-0.10,4.63,0.05,4.63
16.402,-0.22,4.18,1.23,4.36
16.412,-0.45,4.13,3.33,5.33
16.422,-0.54,4.41,5.31,6.92
16.432,-0.40,4.30,5.58,7.06
16.442,-0.47,4.05,5.63,6.95
16.452,-0.60,3.87,5.86,7.05
16.462,-0.70,3.78,6.25,7.33
16.472,-0.84,3.76,6.51,7.57
16.482,-0.84,3.77,6.39,7.47
16.492,-0.73,3.76,6.21,7.30
16.502,-0.72,3.63,5.57,6.69
16.512,-0.42,3.49,4.53,5.73
16.522,-0.07,3.33,3.92,5.14
16.533,0.29,3.19,4.02,5.14
16.543,0.62,2.98,4.33,5.29
16.553,0.78,2.75,4.55,5.38
16.563,0.88,2.54,4.48,5.23
16.573,1.07,2.41,4.13,4.90
16.583,1.26,2.14,3.45,4.25
16.593,1.30,1.62,2.28,3.09
16.603,1.59,0.67,0.38,1.77
16.613,2.56,-0.81,-3.47,4.39
16.623,4.10,-3.86,-12.99,14.16
16.633,3.18,-10.49,-28.96,30.96
16.643,-0.27,-16.40,-32.03,35.99
16.653,-2.27,-17.54,-20.95,27.41
16.663,-4.94,-13.39,-7.05,15.92
16.673,-5.53,-6.76,0.71,8.77
16.683,-4.33,-1.95,2.00,5.16
16.694,-2.37,1.50,1.00,2.97
16.703,-0.65,4.86,-0.14,4.91
16.714,0.27,7.88,0.01,7.89
16.724,0.54,9.51,1.80,9.69
16.734,0.01,9.02,4.14,9.92
16.744,-2.46,6.28,6.76,9.54
16.754,-5.64,2.93,8.21,10.38
16.764,-8.90,-0.12,8.62,12.39
16.774,-10.79,-2.47,8.76,14.12
16.784,-10.62,-3.71,7.38,13.45
16.794,-7.33,-4.78,0.75,8.78
16.804,-2.89,-3.27,1.65,4.67
16.814,-1.02,-0.22,3.99,4.12
16.824,-0.12,1.76,3.85,4.24
16.835,0.37,2.65,3.10,4.10
16.844,0.22,2.53,2.38,3.48
16.855,-0.21,1.43,2.05,2.50
16.864,-0.18,-0.09,2.18,2.19
16.875,-0.17,-1.89,2.34,3.01
16.885,-0.03,-3.33,2.64,4.25
16.895,0.74,-3.74,2.81,4.73
16.905,1.58,-3.41,2.62,4.58
16.915,2.32,-2.80,2.57,4.45
16.925,2.84,-1.74,2.67,4.26
16.935,2.91,-0.48,2.32,3.75
16.945,3.11,0.47,1.97,3.71
16.955,3.48,1.06,1.70,4.02
16.965,3.92,1.40,1.50,4.42
16.975,4.27,1.58,1.23,4.72
16.985,4.31,1.62,0.89,4.69
16.996,4.19,1.51,0.64,4.50
17.006,3.91,1.14,0.31,4.09
17.016,3.56,0.53,-0.02,3.60
17.026,3.07,-0.12,-0.26,3.09
17.036,2.70,-0.75,-0.48,2.84
17.046,2.46,-1.23,-1.07,2.95
17.056,2.25,-1.32,-2.08,3.33
17.066,2.03,-1.20,-2.45,3.40
17.076,2.07,-0.99,-2.20,3.17
17.086,1.71,-0.90,-1.78,2.63
17.096,1.06,-0.55,-1.57,1.97
17.106,0.66,-0.27,-1.45,1.61
17.116,0.47,-0.12,-1.53,1.61
17.126,0.38,-0.24,-1.62,1.68
17.137,0.20,-0.50,-1.67,1.76
17.147,-0.22,-0.80,-1.80,1.98
17.157,-0.55,-1.03,-1.97,2.29
17.167,-1.02,-1.10,-2.13,2.61
17.177,-1.71,-1.13,-2.45,3.20
17.187,-2.50,-1.45,-2.48,3.81
17.197,-2.90,-1.69,-2.38,4.11
17.207,-2.45,-1.64,-2.49,3.86
17.217,-1.29,-1.39,-3.06,3.60
17.227,-0.06,-0.81,-4.52,4.59
17.237,0.46,0.31,-8.65,8.67
17.247,-0.66,0.93,-13.51,13.55
17.257,-2.22,0.36,-12.70,12.90
17.267,-2.32,-0.93,-7.86,8.24
17.278,-1.38,-2.40,-4.55,5.32
17.288,-0.24,-3.12,-3.37,4.60
17.298,0.83,-3.22,-3.06,4.52
17.308,1.72,-3.42,-3.07,4.91
17.318,1.22,-4.86,-3.59,6.16
17.328,-0.42,-6.97,-5.13,8.67
17.338,-2.08,-8.36,-6.92,11.05
17.348,-1.99,-7.57,-6.53,10.19
17.358,0.19,-5.14,-3.92,6.47
17.368,1.49,-3.55,-0.77,3.92
17.378,2.18,-2.90,1.56,3.95
17.388,2.15,-2.38,2.70,4.19
17.398,1.44,-2.33,3.22,4.23
17.408,0.69,-2.75,3.67,4.64
17.418,0.12,-3.21,4.36,5.41
17.429,-0.99,-3.71,5.06,6.35
17.439,-2.44,-4.30,5.69,7.54
17.449,-3.90,-4.73,6.08,8.63
17.459,-4.86,-4.56,5.61,8.71
17.469,-5.51,-4.19,4.84,8.45
17.479,-5.77,-3.87,3.03,7.58
17.489,-5.00,-2.67,1.07,5.77
17.499,-3.30,-0.93,0.77,3.51
17.509,-1.94,0.54,1.43,2.47
17.519,-1.68,1.69,2.56,3.50
17.529,-1.53,2.75,3.16,4.45
17.539,-0.72,3.69,1.59,4.08
17.549,0.24,4.07,-1.62,4.39
17.560,0.09,4.23,-0.96,4.34
17.569,-0.47,4.26,1.29,4.47
17.580,0.07,4.32,3.43,5.52
17.590,0.60,4.40,5.26,6.88
17.600,0.54,4.38,5.92,7.38
17.610,0.26,4.18,5.93,7.26
17.620,-0.25,3.85,6.03,7.16
17.630,-0.53,3.59,6.29,7.26
17.640,-0.43,3.52,6.44,7.35
17.650,-0.24,3.60,6.68,7.59
17.660,-0.24,3.67,6.49,7.46
17.670,-0.18,3.72,5.88,6.96
17.680,-0.06,3.76,5.19,6.42
17.690,0.20,3.79,4.78,6.11
17.700,0.41,3.74,4.86,6.15
17.710,0.48,3.59,5.14,6.28
17.721,0.58,3.44,5.35,6.38
17.731,0.71,3.35,5.31,6.32
17.741,0.87,3.38,4.90,6.02
17.751,1.00,3.21,4.26,5.43
17.761,1.07,2.74,3.36,4.47
17.771,1.14,1.83,1.88,2.86
17.781,1.75,0.31,-1.20,2.14
17.791,3.11,-2.40,-9.46,10.25
17.801,3.48,-9.30,-30.41,31.99
17.811,0.69,-18.34,-42.54,46.33
17.821,-0.80,-20.72,-27.08,34.11
17.831,-2.81,-15.57,-6.40,17.07
17.841,-3.91,-7.98,3.03,9.39
17.851,-3.62,-2.43,4.98,6.62
17.861,-2.01,1.14,3.32,4.05
17.871,-0.34,4.48,0.55,4.52
17.882,0.42,7.66,-1.12,7.75
17.892,0.80,9.86,-0.10,9.89
17.902,0.16,9.91,2.57,10.24
17.912,-2.52,6.35,6.71,9.58
17.922,-6.17,2.48,8.79,11.02
17.932,-9.87,-0.65,8.77,13.22
17.942,-11.93,-2.64,8.55,14.91
17.952,-10.81,-3.34,5.83,12.73
17.962,-5.98,-3.77,1.02,7.14
17.972,-2.64,-2.17,3.19,4.68
17.982,-1.58,-0.36,4.50,4.78
17.992,-0.86,0.61,4.11,4.24
18.002,-0.72,0.78,3.15,3.33
18.012,-1.19,0.00,2.63,2.89
18.023,-1.38,-1.21,2.66,3.23
18.033,-1.20,-2.51,3.03,4.12
18.043,-0.91,-3.51,3.38,4.96
18.053,-0.09,-3.64,3.76,5.23
18.063,0.95,-2.92,3.83,4.91
18.073,1.84,-1.98,3.90,4.75
18.083,2.64,-0.91,4.12,4.98
18.093,3.00,-0.05,3.18,4.37
18.103,3.04,0.51,2.39,3.90
18.113,3.21,0.87,1.95,3.85
18.123,3.41,1.01,1.66,3.92
18.133,3.71,1.08,1.41,4.11
18.143,3.91,1.11,1.22,4.25
18.153,4.01,1.13,0.97,4.28
18.164,3.87,1.20,0.68,4.11
18.173,3.60,1.13,0.40,3.79
18.184,3.25,0.93,0.15,3.38
18.194,2.84,0.68,-0.04,2.92
18.204,2.46,0.39,-0.14,2.50
18.214,2.05,0.23,-0.23,2.08
18.224,1.48,0.45,-0.79,1.74
18.234,0.68,0.64,-1.57,1.83
18.244,0.65,0.47,-1.74,1.91
18.254,0.98,0.03,-1.44,1.74
18.264,0.66,-0.45,-1.16,1.41
18.274,0.18,-0.81,-1.16,1.42
18.284,0.03,-1.12,-1.32,1.73
18.294,0.11,-1.30,-1.60,2.07
18.304,0.20,-1.26,-1.82,2.23
18.314,0.15,-1.21,-1.99,2.34
18.324,-0.13,-1.13,-2.28,2.55
18.335,-0.46,-1.13,-2.69,2.95
18.345,-1.06,-1.32,-3.05,3.48
18.355,-1.78,-1.74,-3.26,4.10
18.365,-2.05,-2.02,-3.25,4.34
18.375,-1.67,-1.95,-3.27,4.15
18.385,-0.84,-1.64,-3.76,4.19
18.395,0.25,-1.20,-5.39,5.53
18.405,1.00,-0.85,-8.02,8.13
18.415,0.62,-0.60,-9.78,9.82
18.425,-0.60,-0.44,-8.98,9.01
18.435,-1.38,-0.87,-6.50,6.70
18.445,-1.16,-1.79,-4.27,4.77
18.455,-0.42,-2.73,-3.00,4.08
18.466,0.54,-3.39,-2.29,4.13
18.476,1.16,-3.83,-2.51,4.72
18.486,1.74,-3.97,-3.63,5.66
18.496,1.24,-4.79,-5.79,7.62
18.506,-0.37,-6.59,-7.97,10.35
18.516,-1.62,-7.53,-7.86,11.01
18.526,-1.40,-6.09,-5.98,8.65
18.536,0.40,-4.02,-3.62,5.42
18.546,1.58,-2.99,-1.24,3.60
18.556,2.39,-2.63,0.64,3.61
18.566,2.71,-2.36,1.51,3.90
18.576,2.25,-2.15,1.98,3.68
18.586,1.31,-2.45,2.78,3.93
18.596,0.39,-2.98,4.07,5.06
18.606,-0.44,-3.40,5.48,6.46
18.616,-1.54,-3.83,6.33,7.56
18.627,-3.01,-4.30,6.69,8.50
18.637,-4.41,-4.41,6.88,9.28
18.647,-5.46,-4.13,6.53,9.46
18.657,-6.21,-3.40,4.66,8.48
18.667,-6.38,-2.19,0.65,6.77
18.677,-5.16,-0.50,-1.53,5.40
18.687,-3.73,0.97,0.14,3.86
18.697,-2.91,1.87,2.29,4.15
18.707,-2.31,2.90,4.32,5.69
18.717,-1.33,4.15,2.66,5.10
18.727,0.16,4.75,-1.72,5.06
18.737,0.53,4.61,-1.52,4.88
18.747,0.63,4.33,1.30,4.57
18.757,0.32,3.78,3.60,5.23
18.768,0.02,3.57,4.37,5.64
18.778,0.13,3.30,4.46,5.55
18.788,0.35,2.97,4.66,5.54
18.798,0.45,2.79,5.39,6.09
18.808,0.45,2.75,6.04,6.65
18.818,0.40,2.67,6.55,7.09
18.828,0.37,2.71,6.64,7.18
18.838,0.45,2.78,6.26,6.86
18.848,0.56,2.79,5.54,6.23
18.858,0.64,2.77,4.72,5.51
18.868,0.75,2.74,4.15,5.03
18.878,0.95,2.73,4.01,4.95
18.888,1.11,2.70,4.37,5.25
18.898,1.26,2.60,4.76,5.57
18.909,1.38,2.46,4.82,5.59
18.919,1.50,2.31,4.52,5.30
18.929,1.48,2.19,3.93,4.73
18.939,1.39,1.95,3.00,3.84
18.949,1.37,1.49,1.68,2.63
18.959,1.59,0.68,-0.42,1.78
18.969,2.38,-0.63,-4.41,5.05
18.979,4.12,-3.35,-13.04,14.08
18.989,3.51,-9.45,-27.89,29.66
18.999,-0.55,-15.45,-31.88,35.43
19.010,-3.22,-16.66,-20.18,26.37
19.019,-5.81,-12.93,-6.42,15.56
19.029,-5.91,-6.86,1.52,9.18
19.039,-4.41,-1.96,2.89,5.63
19.050,-2.47,1.67,1.74,3.45
19.060,-1.05,4.82,0.11,4.93
19.070,-0.59,7.59,-0.08,7.61
19.080,-0.55,9.14,2.04,9.38
19.090,-1.11,8.57,5.39,10.18
19.100,-3.84,6.24,8.44,11.18
19.110,-7.11,3.53,9.52,12.39
19.120,-9.83,1.04,9.20,13.50
19.130,-11.16,-0.48,8.56,14.07
19.140,-10.79,-1.79,3.51,11.49
19.150,-7.20,-3.99,-3.93,9.12
19.160,-3.16,-2.19,3.12,4.95
19.170,-1.25,0.15,5.60,5.74
19.180,-0.01,1.42,4.58,4.79
19.190,0.91,2.17,3.55,4.26
19.200,1.27,2.13,3.16,4.01
19.211,1.14,1.06,3.10,3.47
19.221,0.91,-0.68,3.13,3.33
19.231,0.76,-2.44,3.25,4.13
19.241,0.38,-3.93,3.17,5.06
19.251,0.28,-4.73,3.16,5.70
19.261,0.68,-4.59,3.35,5.72
19.271,1.57,-3.94,3.26,5.35
19.281,2.34,-2.97,2.92,4.78
19.291,2.80,-1.67,2.37,4.03
19.301,3.17,-0.44,2.01,3.78
19.311,3.62,0.47,1.83,4.09
19.321,4.03,1.11,1.57,4.46
19.331,4.31,1.62,1.20,4.76
19.341,4.55,1.99,0.84,5.04
19.352,4.63,2.13,0.56,5.13
19.362,4.55,1.85,0.25,4.92
19.372,4.38,1.07,-0.14,4.51
19.382,4.05,0.05,-0.63,4.10
19.392,3.74,-0.91,-1.10,4.00
19.402,3.38,-1.85,-1.91,4.30
19.412,2.31,-2.61,-3.47,4.92
19.422,1.41,-2.14,-3.97,4.72
19.432,1.47,-1.34,-3.37,3.92
19.442,1.90,-0.97,-2.49,3.28
19.452,1.62,-0.60,-2.09,2.71
19.462,1.10,-0.16,-2.06,2.35
19.472,0.63,-0.07,-1.97,2.07
19.482,0.15,-0.40,-2.03,2.07
19.493,-0.03,-0.95,-2.13,2.34
19.503,0.00,-1.16,-2.20,2.49
19.513,-0.02,-1.14,-2.24,2.52
19.523,-0.30,-1.02,-2.14,2.39
19.533,-0.83,-0.98,-1.97,2.35
19.543,-1.40,-1.03,-1.82,2.52
19.553,-1.78,-0.94,-1.93,2.79
19.563,-1.92,-0.74,-2.06,2.91
19.573,-1.62,-0.59,-2.06,2.69
19.583,-1.02,-0.80,-2.09,2.46
19.593,-0.35,-0.87,-2.32,2.50
19.603,-0.11,-0.65,-2.66,2.74
19.613,-0.51,-0.33,-3.46,3.51
19.623,-1.25,-0.23,-6.65,6.77
19.633,-2.01,-1.37,-11.85,12.10
19.643,-1.89,-3.20,-13.33,13.83
19.654,-1.28,-4.09,-10.33,11.18
19.664,-0.73,-4.66,-7.53,8.89
19.674,0.05,-5.60,-5.00,7.51
19.684,1.11,-6.88,-2.66,7.46
19.694,1.49,-7.81,-1.89,8.17
19.704,0.57,-7.57,-1.77,7.79
19.714,-0.88,-5.97,-1.85,6.31
19.724,-0.45,-3.53,-1.08,3.72
19.734,0.38,-2.01,-0.10,2.05
19.744,0.98,-1.33,0.76,1.82
19.754,1.32,-1.11,1.80,2.50
19.764,1.23,-1.33,2.71,3.26
19.775,0.95,-1.59,3.65,4.09
19.785,0.05,-2.01,4.89,5.28
19.795,-1.27,-2.60,6.02,6.68
19.805,-2.33,-3.07,6.51,7.57
19.815,-3.04,-3.22,6.09,7.53
19.825,-3.75,-3.46,4.51,6.81
19.835,-4.71,-3.68,1.55,6.17
19.845,-4.49,-2.81,-0.03,5.30
19.855,-3.24,-1.30,0.22,3.49
19.865,-1.86,0.15,0.59,1.96
19.875,-0.83,1.44,0.51,1.74
19.885,-0.75,2.60,0.50,2.76
19.895,-1.50,3.46,1.92,4.24
19.905,-1.04,4.13,2.74,5.07
19.915,0.31,4.35,3.28,5.46
19.925,0.54,4.41,4.17,6.09
19.936,0.84,4.33,4.94,6.62
19.945,0.64,3.98,5.17,6.55
19.956,-0.03,3.72,5.36,6.53
19.966,-0.36,3.51,5.71,6.71
19.976,-0.35,3.30,6.10,6.95
19.986,-0.00,3.17,6.08,6.85
19.996,0.21,3.07,5.47,6.28
20.006,0.22,3.03,4.74,5.63
20.016,0.13,3.11,4.30,5.31
20.026,0.02,3.28,4.45,5.52
20.036,-0.03,3.44,4.76,5.87
20.046,0.11,3.64,5.00,6.19
20.056,0.32,3.69,5.24,6.42
20.066,0.41,3.55,5.34,6.42
20.077,0.47,3.34,5.23,6.22
20.087,0.70,3.20,4.78,5.79
20.097,0.96,3.10,4.10,5.23
20.107,1.21,2.82,3.09,4.35
20.117,1.51,2.26,1.75,3.23
20.127,2.03,1.22,-0.33,2.40
20.137,3.13,-0.52,-4.49,5.50
20.147,4.98,-3.95,-13.85,15.24
20.157,4.52,-10.82,-28.79,31.09
20.167,0.74,-17.14,-30.70,35.17
20.178,-1.22,-18.50,-20.07,27.32
20.187,-3.87,-14.56,-8.20,17.16
20.197,-5.20,-7.37,0.12,9.02
20.207,-4.23,-2.35,1.89,5.19
20.217,-2.74,1.18,1.16,3.20
20.228,-0.95,4.71,-0.13,4.80
20.238,-0.09,7.88,-0.68,7.91
20.248,-0.30,9.64,0.92,9.69
20.258,-1.62,8.66,4.10,9.72
20.268,-4.17,4.75,7.72,9.98
20.278,-8.11,1.20,8.83,12.05
20.288,-11.41,-1.29,8.86,14.51
20.298,-12.60,-2.21,8.45,15.33
20.308,-10.57,-2.36,3.34,11.33
20.318,-5.37,-2.05,0.64,5.78
20.328,-2.30,0.08,4.48,5.03
20.338,-0.82,1.76,4.82,5.20
20.348,0.39,2.72,3.83,4.71
20.358,0.77,2.83,2.75,4.03
20.368,0.39,1.93,2.17,2.92
20.379,-0.35,0.23,2.36,2.39
20.389,-0.84,-1.66,2.70,3.27
20.399,-1.12,-3.50,3.04,4.77
20.409,-0.91,-4.53,3.49,5.79
20.419,-0.01,-4.28,3.67,5.64
20.429,1.26,-3.38,3.75,5.21
20.439,2.42,-2.23,4.27,5.39
20.449,2.85,-1.04,3.68,4.77
20.459,3.04,0.07,2.72,4.08
20.469,3.29,0.86,2.08,3.99
20.479,3.54,1.35,1.64,4.13
20.489,3.82,1.67,1.31,4.37
20.499,3.91,1.81,0.95,4.41
20.509,3.97,1.89,0.59,4.44
20.520,3.86,1.75,0.27,4.25
20.530,3.52,1.29,0.01,3.75
20.540,3.02,0.59,-0.14,3.09
20.550,2.58,-0.18,-0.23,2.60
20.560,2.53,-0.71,-0.48,2.67
20.570,2.51,-0.91,-1.31,2.97
20.580,2.16,-0.90,-1.99,3.08
20.590,1.95,-0.84,-2.01,2.92
20.600,1.59,-0.88,-1.62,2.44
20.610,1.00,-0.60,-1.48,1.88
20.620,0.72,-0.23,-1.59,1.76
20.630,0.72,-0.07,-1.75,1.89
20.640,0.75,-0.33,-1.93,2.10
20.650,0.57,-0.77,-2.25,2.45
20.661,0.11,-1.08,-2.65,2.86
20.671,-0.54,-1.30,-3.10,3.41
20.681,-1.58,-1.65,-3.48,4.16
20.691,-2.54,-2.05,-3.61,4.86
20.701,-2.94,-2.27,-3.80,5.31
20.711,-2.58,-2.04,-4.68,5.72
20.721,-1.49,-1.51,-6.98,7.29
20.731,-0.19,-1.18,-9.30,9.37
20.741,0.26,-1.31,-9.01,9.11
20.751,-0.31,-1.46,-7.24,7.39
20.761,-1.18,-1.50,-5.56,5.88
20.771,-1.52,-1.88,-4.09,4.75
20.781,-1.05,-2.46,-3.14,4.13
20.791,-0.23,-2.86,-2.51,3.82
20.802,0.89,-3.29,-2.01,3.95
20.811,1.44,-3.62,-2.51,4.63
20.822,1.06,-3.53,-4.56,5.86
20.832,-0.24,-3.37,-8.59,9.23
20.842,-2.44,-5.07,-11.18,12.51
20.852,-2.67,-6.77,-9.05,11.61
20.862,-0.95,-6.55,-5.65,8.71
20.872,-0.14,-5.19,-3.98,6.54
20.882,0.52,-3.71,-2.10,4.29
20.892,1.87,-3.08,0.27,3.62
20.902,2.46,-2.99,1.54,4.16
20.912,2.08,-2.86,1.78,3.96
20.922,1.24,-3.09,2.49,4.16
20.932,0.30,-3.51,3.71,5.12
20.942,-0.53,-3.80,4.90,6.22
20.952,-1.36,-3.93,5.88,7.20
20.963,-2.36,-4.01,6.68,8.14
20.973,-3.71,-4.05,6.92,8.83
20.983,-4.77,-3.64,6.59,8.91
20.993,-5.20,-2.79,6.16,8.54
21.003,-4.95,-1.54,5.87,7.83
21.013,-4.18,0.26,2.10,4.69
21.023,-3.90,1.92,1.00,4.46
21.033,-3.58,3.35,2.24,5.39
21.043,-2.62,4.39,0.23,5.12
21.053,-1.72,4.75,-3.36,6.07
21.063,-1.45,4.24,-3.16,5.48
21.073,-1.34,4.10,-0.44,4.33
21.083,-0.77,3.85,1.75,4.30
21.093,-0.19,3.69,3.79,5.29
21.103,0.05,3.83,5.57,6.76
21.113,-0.09,3.83,6.11,7.21
21.124,-0.38,3.37,6.05,6.94
21.134,-0.61,3.04,6.66,7.34
21.144,-0.69,2.97,7.61,8.19
21.154,-0.73,2.91,8.31,8.84
21.164,-0.66,2.88,8.48,8.98
21.174,-0.42,2.96,7.76,8.31
21.184,0.01,3.09,6.33,7.05
21.194,0.54,3.20,4.76,5.76
21.204,0.99,3.15,3.91,5.12
21.214,1.19,3.05,3.93,5.11
21.224,1.31,2.84,4.26,5.28
21.234,1.36,2.68,4.51,5.41
21.244,1.39,2.58,4.47,5.35
21.255,1.28,2.49,4.09,4.96
21.265,1.11,2.24,3.35,4.18
21.275,1.01,1.70,2.19,2.95
21.285,1.26,0.80,0.33,1.53
21.295,2.33,-0.58,-3.56,4.29
21.305,4.80,-3.63,-15.01,16.17
21.315,4.66,-11.57,-36.52,38.59
21.325,0.02,-18.04,-37.21,41.35
21.335,-3.09,-17.83,-20.22,27.14
21.345,-5.48,-11.05,-3.31,12.76
21.355,-4.16,-4.08,2.04,6.17
21.365,-2.25,-0.07,3.14,3.86
21.375,-0.66,3.26,2.55,4.19
21.385,0.38,6.89,0.31,6.90
21.395,-0.86,8.38,0.64,8.45
21.406,-4.86,4.75,6.26,9.23
21.416,-9.50,-0.04,9.88,13.71
21.426,-13.84,-2.34,10.57,17.57
21.436,-14.33,-1.61,9.84,17.46
21.446,-10.67,1.01,3.79,11.37
21.456,-5.39,2.18,0.30,5.82
21.466,-1.95,2.34,4.79,5.67
21.476,-0.90,2.38,5.63,6.18
21.486,-0.55,1.95,4.37,4.81
21.496,-0.74,0.76,3.33,3.49
21.506,-1.04,-0.78,3.07,3.34
21.516,-1.22,-2.44,3.31,4.29
21.526,-1.27,-3.86,3.75,5.53
21.536,-1.27,-4.61,4.12,6.31
21.546,-0.68,-4.32,4.20,6.07
21.557,0.34,-3.44,3.85,5.17
21.567,1.61,-2.32,3.76,4.70
21.577,2.92,-1.18,3.91,5.02
21.587,3.75,-0.11,3.59,5.19
21.597,4.11,0.70,2.82,5.03
21.607,4.38,1.32,2.32,5.13
21.617,4.64,1.69,1.89,5.29
21.627,4.69,1.77,1.47,5.23
21.637,4.51,1.69,1.12,4.95
21.647,4.20,1.58,0.77,4.55
21.657,3.95,1.43,0.47,4.22
21.667,3.66,1.09,0.26,3.83
21.677,3.27,0.63,0.15,3.33
21.688,2.84,0.06,0.02,2.84
21.697,2.57,-0.50,-0.11,2.62
21.708,2.37,-0.77,-0.68,2.58
21.718,2.43,-0.62,-1.50,2.92
21.728,2.26,-0.34,-1.67,2.83
21.738,1.70,-0.32,-1.37,2.21
21.748,1.06,-0.39,-1.16,1.62
21.758,0.44,-0.44,-1.13,1.29
21.768,0.19,-0.52,-1.26,1.37
21.778,0.29,-0.64,-1.46,1.62
21.788,0.38,-0.78,-1.65,1.86
21.798,0.19,-0.89,-1.97,2.17
21.808,-0.23,-1.00,-2.43,2.64
21.818,-0.86,-1.12,-2.88,3.21
21.828,-1.71,-1.36,-3.30,3.96
21.838,-2.52,-1.74,-3.51,4.66
21.849,-2.89,-2.00,-3.75,5.14
21.858,-2.56,-1.83,-4.53,5.52
21.869,-1.40,-1.23,-5.97,6.26
21.879,-0.06,-0.65,-7.56,7.59
21.889,0.70,-0.65,-7.88,7.94
21.899,0.71,-0.95,-6.84,6.94
21.909,0.17,-0.98,-5.71,5.79
21.919,-0.77,-0.99,-4.66,4.83
21.929,-1.50,-1.33,-3.56,4.08
21.939,-1.20,-1.88,-2.78,3.56
21.949,-0.33,-2.36,-2.62,3.55
21.959,0.37,-2.87,-2.79,4.02
21.969,0.87,-3.18,-3.23,4.61
21.979,1.31,-3.24,-4.19,5.46
21.990,0.51,-4.35,-6.62,7.94
21.999,-1.25,-6.90,-9.38,11.71
22.010,-1.92,-8.22,-8.66,12.10
22.020,-1.59,-7.05,-5.80,9.26
22.030,-0.04,-4.79,-3.14,5.72
22.040,1.09,-3.51,-1.42,3.94
22.050,1.39,-3.13,-0.31,3.44
22.060,1.67,-2.74,0.92,3.34
22.070,1.54,-2.42,1.58,3.28
22.080,1.10,-2.50,2.16,3.48
22.090,0.43,-2.84,3.49,4.52
22.100,-0.31,-3.07,5.24,6.08
22.110,-1.21,-3.33,6.60,7.49
22.120,-2.23,-3.79,6.89,8.18
22.131,-3.52,-4.25,6.90,8.83
22.141,-4.88,-4.12,6.69,9.25
22.151,-5.61,-3.67,6.19,9.13
22.161,-5.66,-2.87,4.75,7.93
22.171,-4.96,-1.35,1.70,5.41
22.181,-3.65,0.48,0.12,3.69
22.191,-2.53,1.81,1.02,3.27
22.201,-2.02,2.68,2.02,3.92
22.211,-1.07,3.55,0.73,3.78
22.221,-0.15,3.95,-2.26,4.55
22.231,-0.17,4.03,-1.88,4.45
22.241,0.11,3.88,0.78,3.96
22.251,0.49,3.87,3.52,5.25
22.261,0.64,3.86,5.10,6.43
22.271,0.45,3.74,5.49,6.66
22.281,0.35,3.43,5.58,6.56
22.292,0.12,3.16,5.93,6.72
22.301,-0.07,2.99,6.58,7.22
22.312,0.02,3.00,7.23,7.82
22.322,0.17,3.00,7.52,8.10
22.332,0.22,3.07,7.05,7.70
22.342,0.28,3.09,6.08,6.83
22.352,0.42,3.06,4.88,5.78
22.362,0.57,3.05,4.08,5.13
22.372,0.72,2.98,4.05,5.07
22.382,0.86,2.88,4.47,5.39
22.392,0.96,2.84,4.85,5.70
22.402,1.03,2.79,4.92,5.75
22.412,1.21,2.77,4.63,5.52
22.422,1.38,2.62,4.05,5.02
22.433,1.45,2.16,3.31,4.20
22.443,1.46,1.36,2.23,2.99
22.453,1.60,0.13,0.34,1.64
22.463,2.04,-1.76,-4.00,4.82
22.473,3.19,-6.41,-20.29,21.52
22.483,1.53,-14.24,-37.57,40.21
22.493,-0.26,-18.16,-30.92,35.86
22.503,-1.33,-16.00,-13.98,21.29
22.513,-3.21,-9.30,-0.16,9.84
22.523,-3.44,-3.26,4.61,6.61
22.533,-2.37,0.57,4.34,4.98
22.543,-0.45,3.49,2.16,4.13
22.553,0.82,6.25,0.19,6.31
22.563,1.18,8.45,0.25,8.53
22.573,0.73,9.38,2.48,9.72
22.583,-1.50,7.38,5.70,9.44
22.594,-5.26,3.81,7.86,10.20
22.604,-9.41,0.03,8.85,12.92
22.614,-12.60,-2.99,9.12,15.84
22.624,-14.17,-4.62,5.51,15.89
22.634,-13.04,-6.51,-8.85,17.05
22.644,-4.68,-3.46,-1.04,5.91
22.654,-0.80,0.07,5.39,5.45
22.664,0.90,2.16,5.71,6.17
22.674,1.87,3.51,4.65,6.12
22.684,2.17,3.79,3.50,5.59
22.694,2.45,3.34,2.90,5.06
22.704,2.46,1.91,2.90,4.25
22.714,1.99,-0.29,3.00,3.61
22.724,1.69,-2.66,2.94,4.31
22.735,0.91,-4.26,2.93,5.25
22.745,3.50,-5.48,0.70,6.54
22.755,5.13,-5.88,0.24,7.81
22.765,2.15,-4.79,3.57,6.34
22.775,1.35,-2.96,4.03,5.18
22.785,2.38,-1.25,3.15,4.14
22.795,3.17,0.06,2.52,4.04
22.805,3.72,1.06,2.08,4.39
22.815,3.96,1.67,1.70,4.62
22.825,4.00,2.05,1.33,4.68
22.835,3.97,2.24,1.00,4.67
22.845,3.73,2.10,0.69,4.34
22.855,3.18,1.63,0.51,3.61
22.865,2.49,1.00,0.35,2.71
22.876,1.81,0.35,0.31,1.86
22.885,1.28,-0.21,0.29,1.33
22.896,0.99,-0.58,0.26,1.17
22.906,0.95,-0.63,0.15,1.15
22.916,0.90,-0.46,0.02,1.01
22.926,0.61,-0.15,-0.23,0.67
22.936,0.08,0.31,-0.73,0.80
22.946,-0.29,0.44,-0.92,1.06
22.956,-0.45,0.32,-0.95,1.10
22.966,-0.50,0.19,-1.11,1.23
22.976,-0.62,-0.01,-1.33,1.46
22.986,-0.90,-0.32,-1.59,1.85
22.996,-1.07,-0.60,-1.95,2.31
23.006,-0.99,-0.74,-2.21,2.53
23.016,-0.73,-0.77,-2.36,2.59
23.026,-0.48,-0.68,-2.55,2.68
23.037,-0.42,-0.58,-2.79,2.88
23.047,-0.66,-0.67,-2.98,3.12
23.057,-0.90,-1.01,-3.09,3.37
23.067,-0.66,-1.14,-3.18,3.44
23.077,-0.07,-1.18,-3.27,3.47
23.087,0.48,-1.45,-3.40,3.73
23.097,0.84,-1.77,-3.58,4.08
23.107,0.96,-1.79,-3.97,4.46
23.117,0.36,-1.54,-4.50,4.77
23.127,-0.60,-1.38,-4.65,4.88
23.137,-1.05,-1.76,-4.39,4.84
23.147,-0.83,-2.48,-4.03,4.81
23.157,-0.27,-3.08,-3.98,5.04
23.167,0.14,-3.67,-4.41,5.74
23.178,0.41,-4.28,-5.24,6.77
23.187,0.38,-5.15,-6.05,7.95
23.198,0.19,-6.55,-6.37,9.14
23.208,-0.02,-7.48,-5.98,9.58
23.218,-0.22,-7.11,-5.19,8.81
23.228,0.21,-4.71,-4.39,6.44
23.238,1.27,-2.77,-3.20,4.42
23.248,2.08,-2.08,-1.99,3.56
23.258,2.25,-1.56,-1.07,2.94
23.268,2.51,-0.88,-0.02,2.66
23.278,2.69,-0.26,0.95,2.87
23.288,2.39,-0.03,1.18,2.66
23.298,1.79,-0.29,1.69,2.47
23.308,0.99,-0.85,2.63,2.94
23.318,0.11,-1.53,3.88,4.17
23.329,-1.20,-2.40,5.17,5.82
23.339,-2.67,-3.57,6.09,7.55
23.349,-4.23,-4.37,6.28,8.74
23.359,-5.11,-4.46,5.75,8.89
23.369,-5.75,-4.10,4.29,8.26
23.379,-5.97,-3.30,1.56,7.00
23.389,-5.11,-1.60,-0.13,5.36
23.399,-3.38,0.49,0.71,3.49
23.409,-2.53,1.77,2.19,3.78
23.419,-2.08,2.71,2.63,4.31
23.429,-1.39,3.55,1.58,4.13
23.439,-0.69,3.86,0.15,3.92
23.449,-0.12,3.75,0.27,3.76
23.459,0.42,3.53,1.55,3.88
23.469,0.88,3.25,3.04,4.54
23.480,0.93,2.94,4.49,5.45
23.490,1.03,2.72,5.05,5.82
23.500,0.84,2.34,4.76,5.36
23.510,0.79,2.25,5.05,5.58
23.520,0.89,2.42,5.68,6.24
23.530,0.94,2.62,5.86,6.49
23.540,0.83,2.71,5.84,6.49
23.550,0.59,2.81,5.54,6.24
23.560,0.26,2.91,4.87,5.68
23.570,0.02,3.01,4.21,5.17
23.580,-0.06,3.18,3.92,5.04
23.590,0.09,3.34,4.02,5.23
23.600,0.30,3.41,4.35,5.53
23.610,0.42,3.30,4.73,5.78
23.621,0.62,3.05,4.95,5.84
23.631,0.86,2.80,4.83,5.65
23.641,1.01,2.54,4.28,5.08
23.651,1.14,2.17,3.42,4.21
23.661,1.20,1.60,2.34,3.08
23.671,1.38,0.67,0.59,1.65
23.681,1.92,-0.82,-2.82,3.51
23.691,3.04,-3.56,-11.16,12.10
23.701,2.81,-9.16,-25.91,27.62
23.711,0.43,-14.79,-30.70,34.08
23.721,-0.62,-16.51,-22.63,28.02
23.731,-2.39,-13.34,-9.52,16.56
23.741,-3.83,-7.05,0.20,8.03
23.751,-3.54,-1.81,2.53,4.71
23.762,-2.31,1.69,1.79,3.38
23.772,-1.01,4.54,0.64,4.70
23.782,-0.19,6.88,0.68,6.92
23.792,-0.11,8.29,2.33,8.61
23.802,-1.46,7.52,4.81,9.05
23.812,-4.89,4.39,7.32,9.84
23.822,-8.51,1.17,8.14,11.83
23.832,-11.09,-1.30,8.14,13.82
23.842,-12.54,-2.73,7.63,14.93
23.852,-11.95,-3.73,-3.15,12.91
23.862,-6.36,-3.02,-5.71,9.07
23.872,-1.36,0.42,3.64,3.91
23.882,0.24,2.43,5.65,6.15
23.892,1.49,3.81,4.75,6.26
23.902,1.91,4.27,3.50,5.84
23.912,1.86,3.85,2.74,5.08
23.923,1.53,2.65,2.53,3.97
23.933,1.41,0.65,2.77,3.17
23.943,1.14,-1.70,3.30,3.89
23.953,0.73,-3.93,3.80,5.52
23.963,0.69,-5.12,4.11,6.60
23.973,0.98,-5.17,3.92,6.56
23.983,1.02,-4.62,3.56,5.92
23.993,1.22,-3.61,3.31,5.05
24.003,1.89,-2.21,3.08,4.24
24.013,2.46,-0.88,2.67,3.74
24.023,2.75,0.25,2.20,3.53
24.033,2.99,1.08,1.81,3.66
24.044,3.36,1.61,1.54,4.03
24.054,3.79,1.96,1.32,4.47
24.064,4.00,2.04,1.07,4.62
24.074,3.96,1.93,0.68,4.45
24.084,3.61,1.37,0.38,3.88
24.094,3.08,0.55,0.19,3.14
24.104,2.51,-0.23,0.07,2.53
24.114,2.10,-0.84,0.04,2.26
24.124,1.83,-1.23,0.01,2.21
24.134,1.75,-1.32,-0.06,2.19
24.144,1.59,-1.21,-0.19,2.01
24.154,1.30,-0.86,-0.50,1.63
24.164,0.37,-0.07,-1.59,1.63
24.174,-0.11,0.51,-2.40,2.45
24.184,0.36,0.35,-2.34,2.39
24.194,0.69,-0.14,-2.02,2.14
24.204,0.68,-0.53,-1.85,2.04
24.215,0.50,-0.82,-1.82,2.05
24.225,0.35,-0.98,-1.96,2.22
24.235,0.30,-0.92,-2.19,2.39
24.245,0.22,-0.77,-2.26,2.39
24.255,-0.06,-0.72,-2.23,2.35
24.265,-0.42,-0.78,-2.32,2.49
24.275,-0.83,-0.76,-2.63,2.86
24.285,-1.24,-0.85,-2.87,3.24
24.295,-1.29,-0.94,-2.87,3.28
24.305,-0.93,-1.11,-2.86,3.20
24.315,-0.20,-1.21,-3.07,3.31
24.325,0.41,-0.96,-3.63,3.78
24.335,0.27,-0.46,-5.20,5.23
24.346,-0.82,-0.27,-7.54,7.59
24.356,-1.97,-0.88,-8.43,8.70
24.366,-1.91,-2.05,-6.87,7.42
24.376,-0.87,-2.96,-4.97,5.85
24.386,0.05,-3.54,-4.26,5.54
24.396,0.30,-4.25,-4.41,6.13
24.406,0.04,-5.32,-5.18,7.42
24.416,-0.38,-6.56,-6.14,8.99
24.426,-0.58,-7.53,-6.55,10.00
24.436,-0.66,-7.31,-6.20,9.61
24.446,-0.07,-4.88,-4.90,6.92
24.456,0.87,-2.70,-2.82,4.00
24.466,1.91,-1.96,-0.79,2.85
24.476,1.84,-1.50,0.12,2.38
24.487,1.59,-0.98,0.82,2.04
24.497,1.83,-0.50,1.45,2.39
24.507,1.43,-0.41,2.15,2.62
24.517,1.06,-0.78,2.88,3.17
24.527,0.55,-1.30,3.88,4.13
24.537,-0.59,-1.94,5.32,5.70
24.547,-2.03,-2.85,6.53,7.41
24.557,-3.28,-3.74,6.90,8.51
24.567,-4.42,-4.16,6.30,8.75
24.577,-5.49,-4.28,4.32,8.19
24.587,-6.06,-4.10,1.66,7.50
24.597,-4.93,-2.78,0.65,5.70
24.607,-3.41,-0.91,1.61,3.88
24.617,-2.25,0.98,1.80,3.04
24.627,-1.27,2.23,-1.83,3.16
24.637,-1.78,2.74,-1.97,3.82
24.648,-2.31,3.33,0.11,4.06
24.658,-1.55,3.84,1.40,4.37
24.668,-0.68,3.52,2.31,4.26
24.678,-0.27,2.80,2.90,4.04
24.688,-0.24,2.50,3.79,4.55
24.698,-0.20,2.49,4.66,5.28
24.708,-0.22,2.48,5.50,6.04
24.718,-0.02,2.41,6.01,6.48
24.728,0.27,2.60,6.10,6.63
24.738,0.48,2.71,6.06,6.66
24.748,0.58,2.82,5.89,6.55
24.758,0.45,3.03,5.55,6.34
24.768,0.22,3.22,5.16,6.08
24.778,-0.05,3.30,4.89,5.90
24.789,-0.23,3.33,4.78,5.82
24.799,-0.34,3.31,4.83,5.87
24.809,-0.30,3.23,4.99,5.95
24.819,-0.12,3.08,5.21,6.06
24.829,0.27,2.93,5.37,6.12
24.839,0.71,2.81,5.22,5.98
24.849,1.04,2.81,4.74,5.61
24.859,1.25,2.77,4.09,5.09
24.869,1.37,2.49,3.27,4.33
24.879,1.46,1.87,2.26,3.28
24.889,1.63,0.78,0.68,1.93
24.899,2.16,-0.81,-2.60,3.47
24.909,3.84,-3.62,-11.42,12.58
24.919,4.85,-10.54,-30.24,32.39
24.930,0.82,-17.22,-34.36,38.44
24.940,-1.20,-18.01,-21.35,27.96
24.950,-3.19,-13.48,-7.56,15.78
24.960,-4.24,-6.82,0.45,8.04
24.970,-3.25,-2.07,2.22,4.45
24.980,-1.99,1.24,1.91,3.02
24.990,-0.86,4.53,0.87,4.69
25.000,-0.12,7.43,0.51,7.45
25.010,0.08,9.22,1.95,9.43
25.020,-1.20,8.75,4.21,9.78
25.030,-4.26,5.54,6.99,9.88
25.040,-7.95,2.29,8.37,11.77
25.050,-10.73,-0.21,8.33,13.59
25.060,-12.52,-1.59,7.89,14.88
25.070,-13.09,-2.33,-2.20,13.48
25.080,-9.01,-3.36,-9.44,13.47
25.090,-2.61,-1.08,2.12,3.53
25.101,-0.47,0.73,5.60,5.67
25.111,1.09,2.34,5.56,6.13
25.121,1.47,3.10,4.72,5.84
25.131,1.58,3.06,3.51,4.92
25.141,1.95,2.34,2.82,4.15
25.151,2.49,0.68,2.70,3.73
25.161,2.77,-1.23,3.07,4.31
25.171,2.62,-3.27,3.92,5.74
25.181,2.04,-4.94,4.30,6.86
25.191,2.52,-5.94,3.38,7.28
25.201,4.71,-6.21,2.07,8.06
25.211,2.14,-5.27,3.55,6.71
25.221,1.31,-3.71,3.44,5.23
25.232,2.53,-2.14,2.41,4.10
25.242,3.30,-0.75,2.43,4.17
25.252,3.69,0.34,2.19,4.30
25.262,4.15,1.12,1.85,4.68
25.272,4.33,1.70,1.44,4.87
25.282,4.20,2.02,1.04,4.77
25.292,3.80,2.01,0.71,4.36
25.302,3.22,1.68,0.48,3.66
25.312,2.57,1.08,0.35,2.81
25.322,2.01,0.43,0.31,2.08
25.332,1.60,-0.13,0.30,1.63
25.342,1.35,-0.43,0.24,1.44
25.352,1.25,-0.50,0.16,1.35
25.362,1.01,-0.40,0.11,1.09
25.372,0.62,-0.17,-0.06,0.65
25.383,-0.02,0.18,-0.51,0.54
25.393,-0.32,0.44,-0.72,0.90
25.403,-0.33,0.40,-0.82,0.97
25.413,-0.34,0.17,-0.94,1.01
25.423,-0.29,-0.16,-1.02,1.08
25.433,-0.32,-0.47,-1.19,1.31
25.443,-0.45,-0.64,-1.51,1.70
25.453,-0.44,-0.69,-1.91,2.08
25.463,-0.38,-0.52,-2.20,2.29
25.473,-0.37,-0.30,-2.52,2.57
25.483,-0.45,-0.20,-2.80,2.84
25.493,-0.48,-0.27,-2.93,2.98
25.503,-0.44,-0.59,-3.03,3.12
25.513,-0.21,-0.91,-3.18,3.31
25.523,0.31,-1.02,-3.50,3.66
25.534,0.72,-1.08,-3.95,4.16
25.544,0.92,-1.21,-4.36,4.62
25.554,0.94,-1.01,-4.66,4.86
25.564,0.34,-0.56,-4.77,4.82
25.574,-0.72,-0.35,-4.44,4.51
25.584,-1.46,-0.62,-3.53,3.87
25.594,-1.33,-1.30,-2.56,3.17
25.604,-0.61,-1.93,-2.07,2.89
25.614,0.02,-2.46,-2.11,3.24
25.624,0.28,-2.89,-2.46,3.80
25.634,-1.11,-3.92,-2.94,5.02
25.644,-2.64,-5.09,-2.43,6.23
25.655,-3.97,-7.26,-0.71,8.30
25.664,-4.05,-8.34,0.11,9.27
25.675,0.27,-5.28,-3.77,6.49
25.684,0.07,-4.00,-4.64,6.12
25.695,0.31,-2.26,-4.53,5.07
25.705,1.73,-0.27,-6.56,6.79
25.715,-1.22,-1.11,-3.75,4.10
25.725,-2.50,-1.67,-0.25,3.02
25.735,-2.55,-0.97,1.34,3.04
25.745,-2.31,0.36,2.74,3.60
25.755,-1.92,1.47,3.63,4.36
25.765,-0.98,1.97,2.77,3.54
25.775,2.75,3.76,1.29,4.84
25.785,1.94,2.24,1.86,3.50
25.795,-1.06,-0.51,3.20,3.41
25.805,-1.31,-1.51,3.60,4.12
25.815,-1.34,-2.41,4.11,4.95
25.825,-1.30,-3.03,4.60,5.66
25.836,-1.01,-3.14,4.87,5.89
25.846,-0.54,-2.60,4.78,5.47
25.856,0.28,-1.34,3.97,4.20
25.866,0.75,0.16,2.84,2.94
25.876,-0.11,1.01,1.21,1.58
25.886,-2.06,0.80,-0.43,2.25
25.896,-2.99,0.45,-0.85,3.14
25.906,-2.56,0.36,-0.10,2.58
25.916,-0.79,0.98,0.89,1.54
25.926,1.40,1.95,1.84,3.02
25.936,2.53,2.30,2.91,4.49
25.946,2.77,2.18,3.99,5.33
25.956,2.65,1.99,4.78,5.82
25.967,2.01,1.30,5.37,5.88
25.977,1.42,0.82,6.09,6.31
25.987,1.48,1.00,6.50,6.74
25.997,1.46,1.44,6.48,6.80
26.007,0.49,1.35,6.21,6.38
26.017,0.22,1.64,5.42,5.67
26.027,-0.74,1.62,4.97,5.28
26.037,-0.31,1.86,4.29,4.69
26.047,-0.07,2.60,4.24,4.98
26.057,-0.70,2.58,4.01,4.81
26.067,-1.17,2.37,3.56,4.44
26.077,-1.59,1.52,2.72,3.50
26.087,-1.07,0.96,1.56,2.12
26.097,-0.25,0.61,0.53,0.85
26.107,0.43,0.07,-0.28,0.51
26.117,1.38,-0.21,-0.75,1.58
26.127,2.27,-0.04,-1.24,2.59
26.138,2.61,0.10,-1.65,3.09
26.148,2.55,-0.07,-2.76,3.75
26.158,2.06,-1.07,-4.21,4.81
26.168,1.08,-2.80,-6.55,7.21
26.178,-0.19,-4.74,-12.08,12.98
26.188,-1.72,-6.03,-18.37,19.41
26.198,-3.45,-5.87,-17.72,18.98
26.208,-5.21,-4.17,-9.58,11.68
26.218,-5.37,-1.70,-2.23,6.06
26.228,-4.16,0.56,0.87,4.28
26.238,-2.80,2.51,1.94,4.23
26.248,-1.76,4.21,2.00,4.98
26.258,-1.02,5.55,2.24,6.07
26.268,-0.31,6.37,3.03,7.06
26.279,0.07,6.52,3.87,7.58
26.288,-0.81,5.93,4.84,7.70
26.299,-2.52,4.97,5.84,8.07
26.309,-4.09,3.43,6.63,8.52
26.319,-5.41,1.16,7.21,9.09
26.329,-7.42,-2.00,7.42,10.68
26.339,-9.52,-5.89,6.84,13.11
26.349,-10.67,-8.84,5.42,14.88
26.359,-10.30,-10.28,2.59,14.78
26.369,-6.83,-11.76,-10.87,17.41
26.379,0.70,-8.41,-15.25,17.43
26.389,5.79,-2.78,-14.09,15.49
26.399,4.24,0.53,-5.77,7.18
26.409,1.67,1.90,1.59,2.99
26.419,0.77,2.42,3.89,4.65
26.430,1.27,3.08,3.85,5.09
26.440,2.59,4.14,3.44,5.97
26.450,3.23,4.13,3.62,6.38
26.460,2.84,3.11,3.33,5.37
26.470,2.34,1.91,2.83,4.14
26.480,2.05,0.37,2.57,3.31
26.490,2.05,-1.12,2.48,3.41
26.500,2.43,-1.89,2.79,4.15
26.510,2.93,-2.23,2.95,4.71
26.520,3.02,-2.67,3.09,5.08
26.530,2.63,-3.25,3.09,5.20
26.540,2.53,-3.77,3.04,5.46
26.550,2.43,-3.58,3.12,5.33
26.561,2.35,-2.58,3.17,4.72
26.570,2.49,-1.32,3.07,4.17
26.581,1.89,-0.55,2.73,3.37
26.591,1.34,0.10,2.02,2.43
26.601,1.04,0.44,1.56,1.93
26.611,0.80,0.64,1.34,1.69
26.621,1.01,0.97,1.10,1.78
26.631,1.36,1.34,1.04,2.18
26.641,1.48,1.39,0.95,2.24
26.651,0.91,0.79,0.57,1.33
26.661,-0.06,-0.18,-0.01,0.19
26.671,-0.72,-0.95,-0.36,1.24
26.681,-0.75,-1.01,-0.47,1.34
26.691,-0.76,-0.90,-0.65,1.35
26.701,-1.04,-1.03,-1.04,1.80
26.711,-1.14,-1.00,-1.38,2.05
26.722,-0.86,-0.53,-1.55,1.85
26.732,-0.74,-0.24,-1.54,1.72
26.742,-0.49,0.32,-1.42,1.53
26.752,-0.23,0.95,-1.12,1.49
26.762,-0.30,1.13,-0.91,1.48
26.772,-0.18,1.59,-0.35,1.63
26.782,-0.42,1.60,-0.10,1.66
26.792,-0.41,1.62,0.10,1.67
26.802,-0.96,1.04,-0.08,1.41
26.812,-1.57,0.25,-0.51,1.67
26.822,-1.70,-0.27,-0.76,1.88
26.832,-1.38,-0.39,-1.06,1.78
26.842,-0.83,-0.08,-1.17,1.44
26.852,-0.25,0.32,-1.13,1.20
26.863,0.20,0.62,-1.10,1.28
26.873,0.45,0.83,-1.00,1.37
26.883,0.66,1.00,-0.87,1.48
26.893,0.80,1.04,-0.67,1.47
26.903,0.57,0.59,-0.66,1.06
26.913,0.27,0.14,-0.74,0.80
26.923,0.23,0.00,-0.68,0.72
26.933,0.39,0.20,-0.52,0.68
26.943,0.48,0.12,-0.46,0.68
26.953,0.86,-0.05,-0.27,0.90
26.963,1.66,0.04,-0.05,1.66
26.973,2.27,0.20,-0.05,2.28
26.983,2.76,0.69,0.24,2.86
26.993,2.27,0.95,0.84,2.61
27.004,0.45,0.17,0.82,0.95
27.014,-0.99,-1.06,-0.14,1.46
27.024,-1.85,-2.05,-1.07,2.96
27.034,-2.29,-2.71,-1.81,3.98
27.044,-2.61,-3.22,-2.66,4.92
27.054,-2.67,-3.38,-3.37,5.47
27.064,-2.93,-3.32,-3.70,5.77
27.074,-3.09,-3.06,-3.57,5.62
27.084,-2.96,-2.74,-3.43,5.29
27.094,-2.72,-2.79,-2.91,4.87
27.104,-2.07,-2.28,-2.19,3.78
27.114,-1.18,-0.75,-1.18,1.83
27.124,-1.17,0.44,-0.24,1.27
27.134,-1.65,1.23,0.28,2.07
27.144,-2.37,1.83,-1.37,3.29
27.154,-2.50,1.79,-2.76,4.13
27.165,-1.78,1.20,-1.47,2.60
27.175,-0.73,0.63,0.23,0.99
27.185,1.13,1.53,3.30,3.80
27.195,1.08,2.99,5.56,6.40
27.205,-0.39,-0.64,4.72,4.78
27.215,0.90,-3.48,1.71,3.98
27.225,2.30,-2.79,0.80,3.71
27.235,2.37,-1.98,2.33,3.87
27.245,0.83,-2.69,3.25,4.30
27.255,-1.05,-3.26,3.20,4.69
27.265,-1.90,-3.43,2.76,4.79
27.275,-1.91,-2.90,2.35,4.19
27.285,-1.50,-2.01,2.36,3.45
27.295,-0.84,-1.16,2.41,2.80
27.306,-0.05,-0.40,2.53,2.56
27.316,0.83,0.24,2.41,2.56
27.326,1.56,0.74,2.27,2.85
27.336,1.92,0.85,2.00,2.90
27.346,2.17,0.71,1.78,2.89
27.356,2.23,0.57,1.65,2.84
27.366,2.13,0.73,1.66,2.80
27.376,2.04,1.42,1.89,3.12
27.386,2.39,2.53,2.24,4.14
27.396,2.07,2.69,2.41,4.16
27.406,1.51,2.33,2.31,3.61
27.416,1.04,1.90,1.97,2.93
27.426,0.95,1.66,1.81,2.63
27.436,0.81,1.30,1.82,2.38
27.447,1.10,0.78,1.98,2.40
27.457,1.41,0.51,2.09,2.57
27.467,1.41,0.04,2.12,2.55
27.477,1.24,-0.21,1.96,2.33
27.487,0.61,-0.44,1.87,2.02
27.497,0.05,-0.89,1.58,1.82
27.507,-0.51,-1.56,1.22,2.05
27.517,-1.11,-2.15,0.89,2.58
27.527,-1.83,-2.73,0.75,3.37
27.537,-2.55,-3.25,0.65,4.18
27.547,-3.07,-3.69,0.58,4.83
27.557,-3.23,-3.87,0.43,5.05
27.567,-3.29,-2.92,-5.96,7.41
27.577,-3.85,0.19,-16.31,16.76
27.587,-3.55,-4.39,-6.92,8.93
27.597,-3.36,-7.22,-2.38,8.31
27.608,-3.77,-6.67,0.05,7.66
27.618,-3.08,-4.59,1.84,5.83
27.628,-1.55,-2.00,2.68,3.68
27.638,-0.88,-0.68,2.25,2.51
27.648,-1.30,-0.02,0.49,1.39
27.658,-2.11,0.27,-0.59,2.21
27.668,-2.56,0.11,-0.51,2.61
27.678,-2.62,-0.44,-0.33,2.68
27.688,-2.40,-0.83,0.19,2.55
27.698,-1.88,-1.10,1.32,2.55
27.708,-0.49,-0.80,2.32,2.51
27.718,0.80,-0.48,2.92,3.07
27.728,1.49,-0.41,2.74,3.15
27.738,2.38,0.07,1.93,3.06
27.749,3.59,0.42,1.56,3.94
27.759,5.06,0.85,2.20,5.59
27.769,5.88,0.48,2.11,6.27
27.779,5.44,-0.69,-1.73,5.75
27.789,3.35,-1.25,-7.26,8.10
27.799,2.39,-1.93,-7.42,8.03
27.809,2.59,-2.45,-2.78,4.52
27.819,2.19,-1.76,1.25,3.07
27.829,1.22,-1.28,3.22,3.68
27.839,-0.39,-1.29,2.34,2.70
27.849,-1.44,-1.69,0.10,2.22
27.859,-1.86,-2.43,-2.57,4.00
27.869,-1.73,-2.92,-4.95,6.00
27.879,-0.62,-3.23,-6.22,7.04
27.890,0.53,-2.65,-6.95,7.46
27.900,1.70,-1.30,-6.99,7.31
27.910,2.37,0.13,-5.99,6.44
27.920,2.39,1.27,-4.30,5.08
27.930,2.27,1.63,-0.08,2.79
27.940,1.86,1.56,3.13,3.96
27.950,1.45,0.75,4.06,4.37
27.960,4.03,-0.67,4.95,6.41
27.970,6.96,-1.38,5.52,8.99
27.980,6.61,-1.00,6.03,9.00
27.990,6.22,-0.02,5.87,8.56
28.000,5.84,0.64,6.03,8.42
28.011,5.20,0.72,6.54,8.39
28.020,4.06,0.58,6.07,7.33
28.030,2.82,0.35,5.20,5.92
28.040,1.64,0.24,4.32,4.63
28.051,0.78,0.18,3.75,3.83
28.061,0.30,-0.09,3.61,3.62
28.071,0.14,0.17,3.59,3.60
28.081,-0.26,0.49,3.37,3.42
28.091,-1.00,0.48,2.85,3.05
28.101,-1.80,0.36,2.15,2.83
28.111,-2.67,0.09,1.37,3.00
28.121,-3.40,-0.53,0.76,3.52
28.131,-3.60,-1.05,0.47,3.78
28.141,-3.46,-1.33,0.38,3.73
28.151,-3.08,-1.24,0.32,3.34
28.161,-2.73,-1.01,0.10,2.91
28.171,-2.55,-0.85,-0.13,2.70
28.182,-2.68,-0.99,-0.35,2.88
28.192,-2.94,-1.60,-0.62,3.40
28.202,-3.16,-2.14,-0.94,3.93
28.212,-3.19,-2.46,-1.05,4.16
28.222,-2.88,-2.65,-1.03,4.05
28.232,-2.40,-2.69,-1.01,3.75
28.242,-1.92,-2.47,-0.98,3.28
28.252,-1.83,-2.45,-1.12,3.25
28.263,-2.12,-2.71,-1.37,3.70
28.272,-2.50,-3.18,-1.64,4.37
28.282,-2.58,-3.34,-1.74,4.57
28.292,-2.38,-3.17,-1.66,4.30
28.302,-2.15,-2.82,-1.69,3.93
28.312,-1.86,-2.48,-1.75,3.56
28.322,-1.75,-2.33,-1.84,3.45
28.332,-1.81,-2.38,-1.97,3.58
28.342,-1.86,-2.58,-2.06,3.79
28.353,-1.90,-2.72,-2.08,3.91
28.363,-1.89,-2.64,-2.04,3.84
28.373,-1.87,-2.55,-2.02,3.75
28.383,-1.79,-2.42,-1.95,3.59
28.393,-1.66,-2.26,-1.86,3.36
28.403,-1.45,-2.05,-1.71,3.04
28.413,-1.16,-1.77,-1.59,2.65
28.423,-0.94,-1.59,-1.54,2.40
28.433,-0.79,-1.57,-1.64,2.41
28.443,-0.77,-1.65,-1.85,2.59
28.453,-0.83,-1.76,-2.15,2.90
28.463,-0.82,-1.77,-2.41,3.11
28.473,-0.75,-1.77,-2.68,3.29
28.484,-0.59,-1.71,-2.82,3.35
28.494,-0.30,-1.66,-2.45,2.97
28.504,0.80,-1.47,-0.84,1.87
28.514,1.77,-1.50,-0.06,2.32
28.524,0.49,-1.89,-1.50,2.46
28.534,1.18,-1.79,0.17,2.15
28.544,3.55,-2.14,5.05,6.53
28.554,2.28,-2.29,4.84,5.82
28.564,-0.96,-2.22,0.51,2.48
28.574,-1.57,-1.95,-0.28,2.51
28.584,-0.98,-1.99,-1.12,2.49
28.594,-0.09,-2.09,-1.35,2.49
28.604,1.24,-2.08,-0.95,2.60
28.614,2.30,-1.63,0.21,2.83
28.624,3.04,-0.23,1.37,3.34
28.635,2.86,0.49,1.92,3.48
28.645,2.40,0.06,1.61,2.89
28.655,1.69,-1.00,1.02,2.21
28.665,1.39,-1.41,0.76,2.12
28.675,1.63,-1.37,0.32,2.15
28.685,1.82,-1.31,-0.26,2.26
28.695,1.53,-1.19,-0.23,1.95
28.705,0.88,-1.01,0.22,1.36
28.715,-0.00,-0.93,-0.11,0.94
28.725,-0.44,-0.41,-0.92,1.10
28.735,-0.40,0.90,-0.99,1.40
28.745,-0.77,1.60,-0.85,1.97
28.755,-0.93,1.20,-0.57,1.62
28.765,-0.38,0.27,-0.49,0.68
28.776,0.37,-0.27,-0.59,0.74
28.786,0.71,-0.07,-0.64,0.96
28.796,0.63,0.28,-0.73,1.00
28.806,0.51,0.54,-0.88,1.15
28.816,0.50,0.65,-1.08,1.36
28.826,0.36,0.31,-1.24,1.33
28.836,0.10,0.07,-0.98,0.99
28.846,-0.16,0.31,-0.53,0.64
28.856,-0.36,0.74,-0.18,0.84
28.866,-0.55,1.00,0.04,1.14
28.876,-0.77,0.88,0.31,1.20
28.886,-0.63,0.55,0.50,0.98
28.896,-0.17,0.35,0.36,0.53
28.906,0.11,0.19,0.15,0.26
28.916,0.27,0.01,-0.02,0.28
28.927,0.31,-0.15,-0.13,0.37
28.937,0.21,-0.19,-0.23,0.36
28.947,0.08,-0.12,-0.22,0.26
28.957,-0.02,-0.00,-0.16,0.16
28.967,-0.14,0.05,-0.07,0.16
28.977,-0.12,0.02,-0.10,0.16
28.987,0.08,-0.04,-0.36,0.37
28.997,0.32,0.11,-0.58,0.67
29.007,0.47,0.06,-0.63,0.79
29.017,0.47,-0.16,-0.52,0.72
29.030,0.39,-0.20,-0.31,0.54
29.038,0.27,-0.18,-0.09,0.34
29.047,0.10,-0.23,0.07,0.26
29.057,0.04,-0.23,0.17,0.29
29.068,0.09,-0.18,0.17,0.26
29.078,0.16,-0.07,0.10,0.20
29.088,0.18,-0.02,0.01,0.18
29.098,0.12,0.03,0.04,0.13
29.108,0.04,0.02,-0.03,0.06
29.118,0.00,0.01,-0.07,0.07
29.128,0.01,0.02,-0.07,0.07
29.138,0.03,0.04,-0.06,0.08
29.148,0.08,0.07,-0.07,0.13
29.158,0.17,0.09,-0.12,0.23
29.168,0.23,0.09,-0.24,0.35
29.178,0.30,0.25,-0.23,0.46
29.188,0.30,0.21,-0.19,0.41
29.198,0.29,0.06,-0.24,0.38
29.209,0.37,0.04,-0.26,0.45
29.219,0.41,0.06,-0.24,0.48
29.229,0.37,0.08,-0.22,0.44
29.239,0.33,0.09,-0.21,0.40
29.249,0.29,0.08,-0.18,0.36
29.259,0.26,0.07,-0.09,0.29
29.269,0.39,-0.11,0.23,0.46
29.279,0.46,0.09,0.02,0.46
29.289,-0.09,0.31,-0.71,0.78
29.299,-0.50,0.45,-0.92,1.14
29.309,-0.50,0.76,-0.99,1.34
29.319,-0.34,0.78,-1.00,1.31
29.329,-0.13,0.39,-0.53,0.67
29.339,0.02,0.08,0.14,0.16
