time,ax,ay,az,atotal
0.000,-0.36,0.28,-0.06,0.46
0.010,-1.05,-0.02,-0.40,1.13
0.020,-1.31,0.12,-0.61,1.46
0.030,-0.87,0.36,-0.65,1.15
0.040,-0.10,0.46,-0.43,0.64
0.050,0.50,0.56,-0.07,0.76
0.060,0.92,0.56,0.21,1.10
0.071,1.07,0.46,0.46,1.25
0.080,0.88,0.23,0.52,1.05
0.091,0.59,0.01,0.49,0.76
0.101,0.31,-0.13,0.23,0.41
0.111,0.02,-0.25,-0.09,0.26
0.121,-0.28,-0.30,-0.32,0.52
0.131,-0.49,-0.30,-0.46,0.73
0.141,-0.42,-0.36,-0.11,0.56
0.151,-0.15,-0.50,0.56,0.76
0.161,0.06,-0.55,0.75,0.93
0.171,0.22,-0.55,0.25,0.64
0.181,0.02,-0.72,-0.16,0.74
0.191,0.00,-1.15,-0.43,1.23
0.201,0.16,-1.65,-0.48,1.73
0.211,0.63,-1.92,-0.87,2.20
0.222,1.05,-1.93,-1.40,2.60
0.232,1.51,-1.63,-1.59,2.73
0.242,2.35,-1.07,-1.62,3.05
0.252,2.75,-0.87,-2.04,3.53
0.262,2.80,-0.63,-2.68,3.92
0.272,4.31,-0.20,-3.49,5.55
0.282,4.77,0.18,-3.82,6.12
0.292,3.80,-0.11,-3.91,5.45
0.302,2.14,-1.68,-4.08,4.91
0.312,0.79,-2.97,-3.82,4.90
0.322,-0.07,-2.74,-3.20,4.22
0.332,-0.21,-1.62,-2.82,3.26
0.342,-0.26,-0.55,-2.83,2.89
0.353,-0.37,-0.21,-2.98,3.01
0.363,-0.02,-0.66,-3.02,3.09
0.373,1.17,-2.03,-3.05,3.85
0.383,1.64,-2.74,-2.70,4.18
0.393,1.89,-2.60,-2.19,3.89
0.403,2.13,-2.72,-2.06,4.02
0.413,1.80,-3.14,-2.50,4.40
0.423,1.15,-3.27,-3.33,4.81
0.433,0.83,-3.01,-4.53,5.50
0.443,0.29,-2.96,-5.30,6.08
0.453,-0.53,-3.38,-5.61,6.57
0.463,-1.34,-3.97,-5.77,7.13
0.473,-2.28,-4.62,-5.57,7.58
0.483,-3.41,-5.32,-5.31,8.26
0.494,-4.26,-5.62,-5.03,8.66
0.504,-5.04,-5.64,-4.58,8.85
0.514,-5.58,-5.79,-3.81,8.90
0.524,-5.59,-6.18,-3.03,8.87
0.534,-5.32,-6.61,-2.62,8.88
0.544,-5.29,-6.72,-2.16,8.83
0.554,-5.43,-6.75,-1.65,8.82
0.564,-5.42,-6.61,-0.85,8.59
0.574,-4.81,-6.17,0.71,7.85
0.584,-3.17,-5.84,2.34,7.04
0.594,-0.21,-5.20,3.91,6.51
0.604,3.07,-3.79,5.61,7.43
0.614,5.56,-2.23,6.78,9.05
0.624,6.82,-1.01,7.42,10.13
0.634,7.05,-0.48,8.17,10.80
0.644,7.55,-0.42,8.72,11.55
0.655,9.64,0.57,7.97,12.52
0.665,12.55,2.71,4.93,13.75
0.676,15.02,5.10,0.60,15.87
0.685,16.90,6.57,-3.17,18.41
0.695,16.96,7.35,-5.10,19.18
0.705,14.96,8.14,-6.05,18.07
0.715,13.25,8.18,-5.89,16.65
0.725,12.45,7.64,-4.49,15.28
0.735,12.24,7.24,-3.69,14.69
0.745,12.61,6.99,-3.40,14.82
0.755,11.82,5.95,-4.00,13.83
0.765,8.00,4.36,-6.33,11.10
0.775,3.53,2.19,-6.80,7.97
0.785,-0.26,-0.17,-5.49,5.49
0.795,-0.53,-0.97,-3.97,4.12
0.806,1.85,-0.21,-2.13,2.83
0.816,1.60,-0.06,-0.01,1.60
0.826,-3.68,-3.25,1.62,5.17
0.836,-9.19,-4.71,0.39,10.33
0.846,-11.37,-4.67,-0.76,12.32
0.856,-10.01,-4.59,-0.38,11.02
0.866,-6.98,-3.55,-0.23,7.84
0.876,-4.30,-3.03,-0.34,5.27
0.886,-3.16,-3.53,0.00,4.73
0.896,-2.57,-4.09,0.92,4.92
0.906,-3.17,-4.00,0.78,5.17
0.916,-3.55,-4.06,0.41,5.41
0.926,-2.09,-5.78,0.27,6.15
0.937,-1.18,-5.96,0.99,6.16
0.947,1.66,-3.26,3.00,4.73
0.957,2.67,-0.04,3.16,4.14
0.967,1.57,2.20,1.24,2.98
0.977,-0.77,2.96,1.12,3.25
0.987,-3.48,3.98,-1.93,5.63
0.997,-1.39,0.20,-4.18,4.41
1.007,2.03,-3.32,-3.77,5.42
1.017,4.09,-1.22,-1.34,4.47
1.027,7.43,0.22,0.07,7.44
1.037,7.15,0.97,0.24,7.22
1.047,4.63,0.48,-0.04,4.66
1.057,0.89,-0.69,0.17,1.13
1.067,-1.71,-1.48,1.28,2.60
1.078,-3.38,-1.69,1.92,4.24
1.088,-1.53,-1.30,1.32,2.40
1.098,-1.92,-0.74,1.34,2.46
1.108,-3.63,-1.96,0.97,4.23
1.118,-4.24,-2.13,-0.27,4.75
1.128,-1.28,0.04,-2.23,2.57
1.138,2.57,1.11,-2.30,3.62
1.148,2.27,1.69,-1.36,3.14
1.158,1.28,1.16,-1.49,2.28
1.168,0.18,1.29,-1.74,2.17
1.178,-1.08,2.07,-1.96,3.05
1.188,-1.37,2.40,-2.40,3.66
1.198,0.64,1.63,-1.30,2.19
1.208,1.30,1.32,-0.00,1.85
1.219,-0.76,1.59,0.02,1.76
1.229,-0.94,1.57,-0.26,1.85
1.239,-0.73,0.74,-0.50,1.15
1.249,0.17,0.89,1.33,1.61
1.259,-0.51,2.20,2.05,3.04
1.269,0.54,1.29,3.30,3.59
1.279,2.73,0.00,4.52,5.28
1.289,3.53,0.33,3.33,4.87
1.299,4.15,0.81,2.01,4.68
1.309,2.62,1.28,0.92,3.06
1.319,2.84,0.74,1.03,3.11
1.329,2.99,-0.11,0.31,3.00
1.340,1.37,-0.37,-0.77,1.61
1.349,-0.84,0.56,-1.46,1.77
1.360,-2.28,0.86,-1.90,3.09
1.370,-3.26,0.33,-2.36,4.04
1.380,-3.66,0.19,-1.62,4.00
1.390,-3.19,0.17,-0.73,3.28
1.400,-2.98,0.04,-0.57,3.03
1.410,-3.18,0.12,-0.43,3.21
1.420,-3.20,0.20,-0.46,3.24
1.430,-2.95,-0.11,-0.15,2.95
1.440,-2.34,-0.36,0.14,2.37
1.450,-1.66,-0.58,0.56,1.84
1.460,-0.43,-1.61,1.43,2.20
1.470,0.40,-1.81,1.74,2.54
1.480,0.63,-0.61,1.39,1.64
1.490,1.03,-1.00,0.28,1.46
1.500,0.98,-0.87,0.21,1.33
1.510,0.98,-0.31,0.27,1.07
1.521,0.71,-0.10,0.72,1.01
1.531,-0.19,0.17,1.30,1.33
1.541,-0.47,0.27,1.63,1.72
1.551,-0.25,1.35,1.63,2.13
1.561,0.00,1.71,1.31,2.15
1.571,0.21,1.86,0.49,1.94
1.581,0.18,2.11,-0.52,2.19
1.591,0.16,1.96,-1.48,2.46
1.601,0.23,1.68,-2.29,2.85
1.611,0.29,1.28,-2.63,2.94
1.621,0.09,1.00,-2.49,2.68
1.631,-0.18,0.83,-1.85,2.04
1.642,-0.64,0.62,-1.11,1.42
1.652,-0.98,0.60,-0.45,1.23
1.662,-1.07,0.49,0.39,1.23
1.672,-1.11,0.26,1.09,1.58
1.682,-1.31,0.11,1.43,1.94
1.692,-1.48,0.08,1.16,1.88
1.702,-1.38,0.15,0.31,1.43
1.712,-1.16,0.35,-0.88,1.50
1.722,-1.04,0.75,-1.50,1.97
1.732,-0.89,1.32,-1.65,2.29
1.742,-0.90,2.05,-1.63,2.77
1.752,-0.62,2.75,-1.15,3.04
1.762,-0.46,3.31,-0.93,3.47
1.772,-0.15,3.74,-0.60,3.79
1.783,0.32,4.06,-0.05,4.07
1.792,0.66,4.31,0.03,4.36
1.803,1.35,4.34,-0.52,4.58
1.813,1.93,4.24,-1.16,4.80
1.823,2.81,2.24,-0.87,3.70
1.833,1.82,-2.80,-0.36,3.36
1.843,0.50,-8.08,-0.36,8.10
1.853,1.13,-12.62,-1.40,12.75
1.863,0.76,-15.35,-1.63,15.46
1.873,-0.92,-16.56,-1.28,16.64
1.883,-2.57,-14.77,-0.67,15.00
1.893,-1.47,-8.90,-0.46,9.03
1.903,0.92,-2.80,-1.38,3.26
1.913,1.47,0.01,-3.15,3.47
1.924,1.64,1.61,-4.35,4.92
1.934,1.35,1.33,-4.70,5.06
1.944,0.50,-0.78,-4.70,4.79
1.954,-0.02,-1.86,-4.02,4.43
1.964,-0.23,-1.89,-2.64,3.25
1.974,-0.83,-2.00,-1.25,2.50
1.984,-1.70,-2.20,-0.44,2.82
1.994,-2.12,-2.12,-0.36,3.02
2.004,-2.14,-1.85,-0.94,2.98
2.014,-1.76,-1.60,-2.91,3.76
2.024,-1.00,-1.60,-4.91,5.26
2.034,-0.65,-1.61,-4.49,4.82
2.044,-0.77,-1.59,-2.89,3.39
2.054,-1.18,-1.49,-0.94,2.12
2.065,-1.53,-1.10,2.18,2.88
2.075,-0.28,-0.96,4.85,4.95
2.085,0.59,-0.68,5.56,5.64
2.095,1.35,-0.23,5.20,5.38
2.105,1.85,-0.10,4.92,5.26
2.115,1.37,-0.74,3.99,4.28
2.125,0.41,-1.65,2.46,2.99
2.135,0.21,-2.35,0.58,2.43
2.145,0.99,-2.80,-1.57,3.36
2.155,1.41,-3.46,-2.94,4.76
2.165,1.49,-3.72,-3.03,5.03
2.175,1.34,-3.78,-2.29,4.62
2.185,0.92,-3.75,-1.28,4.06
2.195,0.08,-3.36,-0.42,3.39
2.205,-1.05,-2.19,0.12,2.43
2.215,-1.72,-1.15,0.77,2.20
2.226,-1.89,-0.50,1.53,2.49
2.236,-2.13,0.08,2.22,3.08
2.246,-2.41,0.49,2.67,3.63
2.256,-2.58,0.90,2.69,3.83
2.266,-2.60,1.26,2.47,3.80
2.276,-2.42,1.42,2.30,3.62
2.286,-2.02,1.63,2.15,3.37
2.296,-1.82,1.84,2.09,3.33
2.306,-1.58,1.83,2.13,3.22
2.316,-1.08,1.74,2.26,3.05
2.326,-0.70,1.77,2.27,2.96
2.336,-0.40,1.89,2.31,3.01
2.347,-0.18,1.89,2.47,3.12
2.357,-0.09,1.78,2.67,3.21
2.367,-0.07,1.74,2.52,3.07
2.377,0.05,1.84,2.38,3.01
2.387,0.11,1.92,2.37,3.06
2.397,0.29,1.96,2.27,3.01
2.407,0.59,1.95,2.00,2.86
2.417,0.76,1.89,1.81,2.73
2.427,0.70,1.93,1.67,2.64
2.437,0.57,2.08,1.68,2.73
2.447,0.38,2.31,1.91,3.02
2.457,0.28,2.60,2.12,3.36
2.467,0.38,2.80,2.07,3.50
2.477,0.44,3.11,1.92,3.68
2.487,0.42,3.58,1.49,3.90
2.497,0.36,3.79,1.26,4.01
2.508,0.20,3.75,1.19,3.94
2.517,-0.06,3.46,1.03,3.61
2.528,-0.30,2.90,0.76,3.01
2.538,-0.50,2.17,0.62,2.31
2.548,-0.60,1.49,0.63,1.73
2.558,-0.68,0.90,0.62,1.29
2.568,-0.62,0.33,0.18,0.73
2.578,-0.03,-0.44,-2.70,2.73
2.588,1.34,-1.92,-10.19,10.45
2.598,2.21,-4.71,-14.56,15.47
2.608,1.19,-8.34,-10.73,13.64
2.618,-0.44,-9.95,-4.15,10.78
2.628,-2.00,-7.72,4.65,9.24
2.638,-2.64,-3.51,8.43,9.51
2.649,-2.31,1.07,4.60,5.25
2.659,-1.91,4.08,-1.68,4.81
2.669,-1.09,5.11,-2.43,5.77
2.679,-0.62,5.00,1.64,5.30
2.689,-3.46,4.09,2.59,5.95
2.699,-4.84,2.39,0.14,5.40
2.709,-3.74,-0.67,-0.41,3.82
2.719,-2.31,-3.32,2.22,4.62
2.729,-1.07,-5.10,3.92,6.52
2.739,-0.13,-6.30,3.14,7.04
2.749,-0.01,-6.33,1.93,6.61
2.759,-0.04,-5.76,0.67,5.80
2.769,-0.00,-4.03,-0.20,4.03
2.779,-0.03,-1.54,0.36,1.58
2.790,-0.30,0.18,1.40,1.44
2.800,-0.37,0.88,1.66,1.91
2.810,-0.14,1.03,1.50,1.83
2.820,0.11,0.70,1.16,1.36
2.830,-0.00,-0.03,0.79,0.79
2.840,-0.21,-0.70,0.47,0.87
2.850,-0.45,-0.91,0.33,1.07
2.860,-0.25,-1.01,0.28,1.07
2.870,-0.12,-0.62,0.38,0.74
2.880,-0.13,-0.24,0.41,0.49
2.890,-0.00,-0.02,0.44,0.44
2.900,-0.05,0.08,0.52,0.53
2.910,-0.15,0.19,0.44,0.50
2.920,-0.22,0.45,0.14,0.51
2.930,-0.21,0.67,-0.17,0.72
2.941,-0.14,0.90,-0.12,0.92
2.951,-0.00,1.06,-0.03,1.06
2.961,0.02,1.27,-0.02,1.27
2.971,-0.05,1.43,0.04,1.43
2.981,-0.13,1.41,0.06,1.42
2.991,-0.06,1.23,-0.04,1.24
3.001,0.21,0.92,-0.30,0.99
3.011,0.81,0.60,-0.46,1.10
3.021,1.35,0.26,-0.62,1.51
3.031,1.63,-0.00,-0.80,1.81
3.041,1.81,-0.11,-0.73,1.96
3.052,2.15,-0.30,-0.60,2.25
3.061,2.17,-0.28,-0.53,2.25
3.072,1.88,-0.27,-0.41,1.94
3.081,1.43,-0.27,-0.20,1.47
3.092,1.05,-0.20,-0.04,1.07
3.102,0.58,-0.07,0.00,0.59
3.112,0.18,0.11,-0.01,0.21
3.122,0.03,0.33,-0.02,0.33
3.132,-0.14,0.56,-0.08,0.58
3.142,-0.27,0.71,-0.13,0.77
3.152,-0.33,0.77,-0.07,0.84
3.162,-0.32,0.77,-0.03,0.84
3.172,-0.32,0.74,0.03,0.80
3.182,-0.35,0.64,0.03,0.73
3.192,-0.39,0.51,0.01,0.64
3.202,-0.39,0.40,-0.01,0.56
3.213,-0.35,0.26,-0.07,0.44
3.223,-0.27,0.15,-0.14,0.34
3.233,-0.11,0.04,-0.16,0.20
3.243,0.06,0.05,-0.19,0.21
3.253,0.20,0.01,-0.28,0.35
3.263,0.41,-0.06,-0.40,0.57
3.273,0.53,-0.13,-0.45,0.71
3.283,0.68,-0.25,-0.49,0.87
3.293,0.75,-0.41,-0.50,0.99
3.303,0.79,-0.50,-0.46,1.05
3.313,0.82,-0.67,-0.44,1.15
3.323,0.82,-0.85,-0.40,1.25
3.333,0.78,-1.16,-0.35,1.44
3.343,0.73,-1.59,-0.33,1.78
3.354,0.73,-2.14,-0.33,2.28
3.364,0.72,-2.72,-0.34,2.83
3.374,0.77,-3.37,-0.34,3.48
3.384,0.91,-4.03,-0.32,4.14
3.394,1.09,-4.62,-0.33,4.76
3.404,1.08,-5.12,-0.37,5.24
3.414,0.86,-5.61,-0.53,5.69
3.424,0.27,-5.87,-0.70,5.92
3.434,-0.64,-5.78,-0.96,5.89
3.444,-1.67,-5.40,-1.49,5.84
3.454,-3.00,-4.57,-3.37,6.42
3.464,-4.71,-3.31,-7.83,9.72
3.474,-6.22,-1.75,-11.93,13.57
3.484,-6.30,-0.55,-11.40,13.04
3.495,-5.43,-0.34,-9.77,11.18
3.505,-3.44,-0.66,-8.03,8.76
3.515,-2.16,-1.53,-5.10,5.75
3.525,-1.55,-2.09,-2.22,3.42
3.535,-0.55,-2.43,0.70,2.59
3.545,0.45,-2.27,3.79,4.44
3.555,1.26,-1.71,5.53,5.93
3.565,2.00,-0.96,6.03,6.43
3.575,1.95,-0.36,6.08,6.40
3.585,1.67,-0.20,6.02,6.25
3.595,1.37,-0.17,5.10,5.28
3.605,1.24,-0.39,2.99,3.26
3.615,1.55,-1.36,-0.13,2.07
3.625,1.14,-2.39,-2.92,3.94
3.636,-0.30,-2.82,-4.22,5.08
3.645,-1.23,-2.60,-2.77,3.99
3.656,-1.08,-2.12,0.08,2.38
3.666,-0.69,-1.51,1.70,2.38
3.676,-0.47,-1.19,1.67,2.10
3.686,-0.79,-0.92,1.48,1.92
3.696,-1.51,-0.36,2.14,2.64
3.706,-1.64,0.13,2.49,2.99
3.716,-1.50,0.77,2.15,2.73
3.726,-1.42,1.25,2.03,2.77
3.736,-1.41,1.43,2.02,2.85
3.746,-1.59,1.61,2.29,3.22
3.757,-1.52,1.76,2.88,3.70
3.766,-1.40,2.08,3.50,4.30
3.777,-1.21,2.54,4.07,4.94
3.787,-1.00,3.13,4.68,5.72
3.797,-0.80,3.70,5.07,6.33
3.807,-0.67,4.20,5.28,6.78
3.817,-0.60,4.58,5.20,6.96
3.827,-0.66,4.77,5.08,7.00
3.837,-0.88,4.86,4.97,7.01
3.847,-1.13,4.90,4.98,7.08
3.857,-1.17,4.99,5.18,7.29
3.867,-0.99,5.05,5.35,7.43
3.877,-0.63,4.97,5.20,7.22
3.887,-0.27,4.40,4.86,6.56
3.897,0.16,3.48,4.41,5.62
3.907,0.56,2.51,3.43,4.29
3.917,0.93,1.61,1.82,2.61
3.928,1.76,0.52,-0.26,1.85
3.938,2.89,-0.58,-1.97,3.55
3.948,2.57,-0.36,-0.01,2.59
3.958,0.78,0.50,3.99,4.10
3.968,0.05,1.13,4.42,4.56
3.978,2.19,0.48,-3.79,4.40
3.988,1.13,-2.87,-18.09,18.35
3.998,-4.84,-6.30,-11.86,14.28
4.008,-6.88,-5.93,7.90,12.04
4.018,-4.83,-6.01,8.83,11.72
4.028,-1.93,-7.15,1.69,7.60
4.038,-3.05,-6.31,-1.24,7.12
4.048,-5.53,-2.77,-4.90,7.89
4.059,-4.24,0.22,-2.53,4.94
4.068,-1.61,0.84,1.16,2.16
4.079,-0.19,0.28,2.02,2.05
4.089,-0.45,-1.29,1.16,1.79
4.099,-1.46,-2.58,0.64,3.03
4.109,-2.40,-2.92,0.31,3.80
4.119,-2.93,-2.34,0.38,3.77
4.129,-2.94,-1.35,1.22,3.46
4.139,-2.43,-0.43,2.05,3.20
4.149,-1.74,0.42,2.57,3.13
4.159,-0.83,0.71,2.71,2.93
4.169,-0.20,0.53,2.83,2.89
4.179,0.22,-0.02,2.72,2.73
4.189,0.53,-0.52,2.48,2.58
4.200,0.65,-0.90,2.28,2.53
4.209,0.90,-1.38,1.87,2.49
4.220,1.09,-1.50,1.43,2.34
4.230,1.44,-1.35,0.72,2.10
4.240,1.82,-0.89,-0.11,2.03
4.250,1.97,-0.18,-0.45,2.02
4.260,1.93,0.58,-0.56,2.09
4.270,1.68,1.16,-0.54,2.11
4.280,1.43,1.55,-0.45,2.15
4.290,1.07,1.79,-0.50,2.14
4.300,0.61,1.88,-0.70,2.10
4.310,0.10,1.80,-0.90,2.02
4.320,-0.37,1.58,-0.99,1.90
4.330,-0.57,1.31,-0.99,1.74
4.340,-0.51,1.07,-0.91,1.50
4.350,-0.28,0.82,-0.72,1.12
4.361,-0.05,0.66,-0.51,0.84
4.371,0.17,0.62,-0.44,0.78
4.381,0.42,0.56,-0.57,0.90
4.391,0.55,0.47,-0.64,0.97
4.401,0.61,0.45,-0.74,1.06
4.411,0.76,0.43,-0.79,1.18
4.421,0.98,0.34,-0.76,1.29
4.431,1.12,0.25,-0.64,1.31
4.441,1.15,0.13,-0.59,1.30
4.451,1.11,0.09,-0.67,1.30
4.461,1.03,0.12,-0.82,1.33
4.471,0.85,0.11,-0.96,1.28
4.481,0.71,-0.04,-1.02,1.24
4.491,0.58,-0.23,-0.98,1.16
4.502,0.53,-0.33,-0.95,1.13
4.512,0.59,-0.27,-1.01,1.20
4.522,0.65,-0.03,-1.08,1.26
4.532,0.49,0.28,-1.17,1.30
4.542,0.22,0.59,-1.28,1.43
4.552,0.03,0.75,-1.37,1.56
4.562,-0.08,0.70,-1.44,1.60
4.572,-0.14,0.58,-1.50,1.62
4.582,-0.11,0.26,-1.54,1.56
4.592,0.13,-0.14,-1.58,1.59
4.602,0.43,-0.43,-1.64,1.75
4.612,0.68,-0.67,-1.77,2.01
4.623,1.02,-0.92,-1.94,2.37
4.632,1.36,-1.31,-2.08,2.80
4.643,1.65,-1.89,-2.16,3.32
4.653,1.83,-2.46,-2.15,3.75
4.663,1.86,-2.95,-2.07,4.06
4.673,1.67,-3.25,-1.82,4.08
4.683,1.30,-3.47,-1.49,3.99
4.693,1.21,-4.08,-1.29,4.44
4.703,1.14,-4.60,-0.97,4.84
4.713,0.91,-5.21,-0.35,5.31
4.723,0.35,-5.94,0.10,5.95
4.733,-0.73,-6.52,0.54,6.58
4.743,-2.12,-6.49,1.04,6.90
4.753,-3.10,-6.25,1.33,7.10
4.763,-3.67,-5.48,0.88,6.65
4.773,-4.17,-4.06,-1.23,5.94
4.784,-5.34,-2.42,-7.93,9.86
4.794,-5.73,-1.00,-13.45,14.65
4.804,-4.27,0.29,-10.22,11.08
4.814,-3.51,0.65,-5.82,6.83
4.824,-3.12,0.04,-2.13,3.78
4.834,-3.02,-0.74,0.62,3.17
4.844,-2.14,-1.44,1.54,3.01
4.854,-0.84,-1.55,2.66,3.19
4.864,-0.06,-0.94,4.25,4.35
4.874,0.55,-0.53,5.90,5.95
4.884,1.52,-0.54,6.86,7.05
4.894,1.88,-0.58,6.21,6.52
4.904,1.93,-0.71,4.64,5.07
4.914,2.34,-1.07,2.73,3.75
4.925,2.71,-1.46,1.28,3.33
4.934,2.12,-1.85,-0.29,2.83
4.945,1.23,-2.13,-2.48,3.50
4.955,-0.08,-2.08,-4.24,4.73
4.965,-1.55,-1.87,-3.05,3.89
4.975,-1.98,-1.36,0.44,2.44
4.985,-1.72,-0.83,2.50,3.15
4.995,-1.22,-0.55,2.71,3.02
5.005,-1.03,-0.17,3.10,3.27
5.015,-1.30,0.48,3.28,3.56
5.025,-1.82,1.18,2.84,3.57
5.035,-2.00,1.73,2.31,3.51
5.045,-1.87,2.30,1.82,3.48
5.056,-1.63,2.69,1.42,3.45
5.066,-1.55,2.84,1.40,3.53
5.076,-1.51,2.82,1.78,3.66
5.086,-1.41,2.73,2.53,3.98
5.096,-1.23,2.77,3.29,4.48
5.106,-1.12,2.96,3.89,5.02
5.116,-1.15,3.23,4.25,5.46
5.126,-1.14,3.53,4.37,5.73
5.136,-1.04,3.80,4.45,5.94
5.146,-0.99,3.96,4.56,6.12
5.156,-0.91,4.01,4.71,6.25
5.166,-0.83,3.99,4.73,6.24
5.176,-0.64,3.93,4.63,6.10
5.187,-0.44,3.90,4.50,5.97
5.196,-0.33,3.88,4.05,5.62
5.207,-0.06,3.67,3.68,5.20
5.217,0.33,3.26,3.41,4.73
5.227,0.79,2.87,3.16,4.34
5.237,1.14,2.58,2.79,3.97
5.247,1.32,2.30,2.30,3.51
5.257,1.21,2.10,2.08,3.19
5.267,0.82,2.08,1.99,2.99
5.277,0.51,2.17,1.93,2.95
5.287,0.25,2.28,1.57,2.78
5.297,0.51,2.20,-1.16,2.53
5.307,2.59,1.03,-8.95,9.37
5.317,3.98,-2.30,-16.22,16.86
5.327,0.79,-7.13,-14.18,15.89
5.337,-2.90,-9.12,-0.27,9.57
5.348,-4.20,-8.74,9.79,13.78
5.358,-3.19,-7.58,9.96,12.92
5.368,-2.94,-5.29,4.15,7.35
5.378,-4.36,-0.62,-3.67,5.73
5.388,-4.22,3.74,-7.40,9.30
5.398,-2.22,4.72,-2.56,5.81
5.408,-0.70,3.83,2.10,4.43
5.418,0.44,1.94,2.93,3.53
5.428,0.87,-1.01,1.01,1.67
5.438,-0.41,-4.35,-0.85,4.45
5.448,-2.32,-6.68,-0.21,7.07
5.458,-3.60,-6.90,1.47,7.92
5.468,-3.13,-5.20,2.04,6.41
5.478,-2.06,-2.55,1.61,3.65
5.489,-1.23,-0.24,1.15,1.70
5.498,-0.65,1.21,1.18,1.81
5.509,-0.55,1.73,1.44,2.32
5.519,-0.64,1.46,1.74,2.36
5.529,-0.75,0.78,1.78,2.09
5.539,-0.86,-0.06,1.44,1.67
5.549,-1.00,-0.76,0.90,1.54
5.559,-0.94,-1.59,0.40,1.89
5.569,-0.81,-2.02,0.20,2.18
5.579,-0.53,-2.13,0.12,2.20
5.589,-0.30,-1.81,0.10,1.84
5.599,-0.15,-1.36,0.15,1.38
5.609,0.03,-0.78,0.22,0.81
5.619,0.06,-0.11,0.35,0.37
5.629,0.07,0.41,0.46,0.62
5.640,0.13,0.83,0.55,1.01
5.650,0.20,1.15,0.63,1.33
5.660,0.20,1.37,0.66,1.53
5.670,0.21,1.48,0.62,1.62
5.680,0.28,1.61,0.53,1.72
5.690,0.35,1.77,0.34,1.83
5.700,0.40,1.86,0.06,1.90
5.710,0.50,1.81,-0.23,1.89
5.720,0.66,1.69,-0.50,1.89
5.730,0.94,1.44,-0.56,1.81
5.740,1.30,1.20,-0.53,1.85
5.750,1.55,1.07,-0.71,2.01
5.760,1.73,0.93,-1.02,2.22
5.770,1.89,0.68,-1.25,2.37
5.780,1.86,0.43,-1.42,2.38
5.791,1.68,0.06,-1.65,2.36
5.800,1.47,-0.19,-1.85,2.37
5.811,1.20,-0.31,-1.89,2.26
5.821,0.92,-0.28,-1.73,1.98
5.831,0.80,-0.30,-1.59,1.80
5.841,0.76,-0.29,-1.50,1.71
5.851,0.72,-0.38,-1.45,1.67
5.861,0.68,-0.45,-1.33,1.56
5.871,0.67,-0.47,-1.26,1.50
5.881,0.63,-0.28,-1.25,1.43
5.891,0.61,-0.05,-1.22,1.37
5.901,0.53,0.09,-1.25,1.36
5.912,0.47,0.02,-1.37,1.44
5.921,0.54,-0.12,-1.44,1.54
5.932,0.66,-0.42,-1.56,1.74
5.942,0.78,-0.77,-1.65,1.98
5.952,0.89,-1.20,-1.71,2.27
5.962,1.01,-1.74,-1.72,2.65
5.972,1.10,-2.19,-1.68,2.97
5.982,1.12,-2.52,-1.61,3.19
5.992,1.04,-2.63,-1.54,3.22
6.002,0.89,-2.66,-1.52,3.19
6.012,0.58,-2.72,-1.61,3.21
6.022,0.19,-3.02,-1.75,3.49
6.032,0.05,-3.78,-1.88,4.22
6.042,0.37,-4.63,-1.74,4.96
6.052,0.65,-5.20,-1.58,5.48
6.062,0.52,-5.66,-1.55,5.89
6.073,0.11,-6.07,-1.61,6.28
6.083,-0.57,-5.79,-1.83,6.10
6.093,-1.90,-4.75,-2.55,5.72
6.103,-3.28,-3.52,-3.74,6.09
6.113,-4.37,-2.22,-5.01,7.02
6.123,-5.30,-1.12,-5.82,7.95
6.133,-5.30,-0.45,-5.21,7.44
6.143,-4.49,-0.28,-3.30,5.58
6.153,-3.61,-0.54,-1.16,3.83
6.163,-2.77,-1.36,0.80,3.19
6.173,-2.10,-2.16,2.40,3.85
6.183,-1.20,-2.33,3.28,4.20
6.194,-0.22,-1.83,3.42,3.89
6.203,0.51,-1.12,3.73,3.93
6.214,1.00,-0.85,4.12,4.33
6.224,1.35,-0.74,3.96,4.25
6.234,1.94,-0.83,2.51,3.28
6.244,2.66,-1.33,0.54,3.03
6.254,2.75,-1.99,-1.51,3.71
6.264,1.62,-2.19,-3.08,4.11
6.274,-0.39,-1.90,-2.86,3.46
6.284,-1.89,-1.54,-0.93,2.61
6.294,-2.22,-0.95,1.21,2.70
6.304,-1.66,-0.35,2.27,2.84
6.314,-1.11,-0.21,3.06,3.26
6.324,-0.59,-0.07,4.27,4.31
6.334,-1.04,0.40,1.27,1.69
6.344,-1.32,0.84,1.52,2.18
6.355,-1.30,1.13,2.02,2.65
6.365,-0.86,1.36,1.97,2.54
6.375,-0.27,1.34,2.01,2.44
6.385,0.07,1.38,3.40,3.68
6.395,0.07,2.06,6.02,6.36
6.405,0.02,2.08,0.45,2.13
6.415,-0.79,2.32,1.81,3.05
6.425,-1.34,2.57,2.48,3.81
6.435,-1.66,2.80,3.71,4.94
6.445,-1.77,3.24,5.17,6.35
6.455,-1.82,3.83,5.79,7.18
6.465,-1.76,4.45,5.88,7.58
6.476,-1.77,4.91,5.55,7.61
6.486,-1.88,5.04,4.93,7.30
6.496,-2.00,4.90,4.26,6.79
6.506,-1.92,4.58,3.60,6.14
6.516,-1.68,4.11,3.12,5.42
6.526,-1.21,3.46,2.87,4.65
6.536,-0.48,2.78,2.94,4.08
6.546,-0.24,2.31,3.11,3.88
6.556,-0.29,1.97,3.24,3.80
6.566,-0.45,2.00,2.92,3.57
6.576,-0.42,2.16,2.50,3.32
6.586,-0.35,2.24,2.21,3.16
6.596,-0.32,2.19,2.12,3.06
6.606,-0.24,2.06,2.15,2.99
6.616,-0.09,1.92,2.31,3.00
6.626,0.08,1.70,2.69,3.18
6.637,0.19,1.41,2.90,3.23
6.647,0.38,1.07,2.01,2.31
6.657,1.41,0.30,-3.08,3.40
6.667,3.62,-2.06,-14.86,15.44
6.677,2.97,-7.77,-23.30,24.74
6.687,-1.76,-12.28,-5.99,13.78
6.697,-5.70,-11.80,11.29,17.29
6.707,-5.96,-10.82,12.02,17.23
6.717,-5.43,-9.38,6.97,12.89
6.727,-4.28,-5.39,-0.71,6.92
6.737,-4.13,0.66,-6.55,7.77
6.747,-2.49,4.76,-6.55,8.47
6.758,-0.75,5.87,-2.13,6.29
6.767,-0.23,4.24,2.63,4.99
6.778,-0.03,1.65,3.20,3.60
6.788,-0.19,-1.32,1.12,1.74
6.798,-1.31,-4.19,-1.10,4.52
6.808,-2.46,-5.31,-0.37,5.87
6.818,-2.69,-3.91,1.25,4.91
6.828,-2.57,-1.49,1.61,3.38
6.838,-2.33,0.45,1.55,2.83
6.848,-1.69,1.43,1.76,2.83
6.858,-1.22,1.30,2.25,2.86
6.868,-0.81,0.27,2.59,2.72
6.878,-0.46,-0.76,2.57,2.72
6.888,-0.03,-1.49,2.18,2.64
6.898,0.68,-2.07,1.47,2.63
6.908,1.11,-2.00,0.90,2.46
6.919,1.55,-1.70,0.43,2.34
6.929,1.68,-1.01,0.08,1.96
6.939,1.61,-0.21,-0.13,1.62
6.949,1.50,0.55,-0.39,1.65
6.959,1.38,1.12,-0.58,1.87
6.969,1.33,1.44,-0.66,2.07
6.979,1.33,1.53,-0.71,2.14
6.989,1.34,1.54,-0.73,2.17
6.999,1.28,1.43,-0.77,2.07
7.009,1.14,1.40,-0.79,1.97
7.020,0.86,1.33,-0.84,1.79
7.029,0.73,1.19,-0.90,1.66
7.040,0.62,1.11,-0.91,1.56
7.050,0.59,1.00,-0.95,1.50
7.060,0.70,0.80,-0.90,1.40
7.070,0.87,0.63,-0.83,1.36
7.080,1.07,0.48,-0.60,1.32
7.090,1.30,0.38,-0.37,1.41
7.100,1.55,0.42,-0.19,1.62
7.110,1.60,0.51,-0.22,1.70
7.120,1.62,0.50,-0.35,1.73
7.130,1.63,0.40,-0.57,1.77
7.140,1.59,0.26,-0.83,1.81
7.150,1.47,0.01,-1.10,1.84
7.160,1.22,-0.32,-1.29,1.80
7.170,0.87,-0.59,-1.45,1.79
7.180,0.58,-0.84,-1.66,1.94
7.190,0.39,-0.95,-1.83,2.10
7.201,0.36,-0.84,-1.97,2.17
7.211,0.41,-0.43,-2.06,2.15
7.221,0.46,0.03,-2.11,2.16
7.231,0.38,0.27,-2.15,2.20
7.241,0.03,0.16,-2.09,2.10
7.251,-0.05,-0.08,-1.89,1.90
7.261,0.15,-0.30,-1.65,1.68
7.271,0.50,-0.42,-1.44,1.58
7.281,0.84,-0.38,-1.28,1.58
7.291,1.24,-0.42,-1.22,1.79
7.301,1.60,-0.57,-1.20,2.08
7.311,1.91,-0.96,-1.14,2.42
7.321,2.01,-1.63,-0.99,2.77
7.331,1.82,-2.59,-0.72,3.25
7.342,1.43,-3.65,-0.44,3.94
7.352,1.01,-4.73,-0.21,4.84
7.362,0.58,-5.79,-0.08,5.82
7.372,0.20,-6.66,0.05,6.66
7.382,-0.27,-7.45,0.18,7.46
7.392,-0.88,-7.99,0.23,8.04
7.402,-1.76,-8.08,0.35,8.27
7.412,-2.72,-7.65,0.65,8.15
7.422,-3.75,-6.52,0.66,7.55
7.432,-4.92,-4.38,-1.51,6.76
7.442,-7.59,-1.69,-9.41,12.21
7.452,-9.60,0.77,-14.49,17.40
7.462,-7.61,2.09,-10.94,13.49
7.472,-5.55,1.97,-6.67,8.90
7.483,-4.96,0.86,-2.53,5.63
7.493,-3.90,-0.41,1.29,4.13
7.503,-2.61,-1.13,3.44,4.46
7.513,-0.60,-1.48,4.13,4.43
7.523,0.64,-1.08,4.13,4.32
7.533,1.11,-1.07,5.29,5.50
7.543,1.58,-1.16,6.28,6.58
7.553,1.85,-1.17,5.88,6.28
7.563,2.26,-1.47,4.67,5.39
7.573,2.72,-1.88,3.17,4.58
7.583,2.85,-2.38,0.83,3.81
7.593,1.77,-2.59,-1.60,3.52
7.603,0.39,-2.23,-2.91,3.69
7.613,-0.25,-1.66,-2.37,2.90
7.624,0.03,-1.23,-1.55,1.98
7.634,-0.21,-0.62,-0.21,0.69
7.644,-1.17,0.04,2.24,2.53
7.654,-1.85,0.79,4.10,4.57
7.664,-2.24,1.49,5.01,5.68
7.674,-2.22,1.90,6.16,6.82
7.684,-1.71,2.47,3.26,4.44
7.694,-1.42,2.84,1.89,3.70
7.704,-1.52,2.86,1.64,3.63
7.714,-1.65,2.80,1.57,3.61
7.724,-1.67,2.72,2.10,3.82
7.734,-1.61,2.70,2.96,4.31
7.744,-1.42,2.78,3.88,4.98
7.755,-1.28,3.01,4.60,5.65
7.765,-1.11,3.23,4.81,5.90
7.775,-0.81,3.40,4.74,5.88
7.785,-0.60,3.52,4.43,5.69
7.795,-0.80,3.57,4.13,5.52
7.805,-1.03,3.50,4.09,5.48
7.815,-0.99,3.43,4.29,5.58
7.825,-0.71,3.35,4.32,5.51
7.835,-0.16,3.29,4.28,5.40
7.845,0.14,3.43,4.25,5.46
7.855,0.23,3.59,4.08,5.44
7.865,0.37,3.66,3.82,5.30
7.875,0.67,3.68,3.29,4.98
7.885,1.07,3.58,2.70,4.61
7.895,1.34,3.34,2.14,4.19
7.905,1.32,3.01,1.78,3.73
7.916,1.02,2.64,1.86,3.39
7.926,0.59,2.35,2.23,3.30
7.936,0.19,2.19,2.53,3.35
7.946,-0.20,2.03,2.57,3.28
7.956,-0.41,1.75,1.68,2.46
7.966,0.30,0.98,-3.78,3.92
7.976,2.89,-1.09,-16.12,16.41
7.986,1.71,-5.62,-24.24,24.94
7.996,-3.15,-10.33,-10.71,15.21
8.006,-6.04,-10.83,8.47,15.02
8.016,-6.00,-10.06,12.95,17.46
8.026,-5.13,-8.68,9.51,13.87
8.036,-4.73,-5.49,4.11,8.33
8.046,-4.54,-0.20,-1.85,4.91
8.057,-2.37,4.15,-5.93,7.61
8.067,0.63,5.35,-4.82,7.23
8.077,1.43,3.82,0.90,4.18
8.087,0.90,0.88,3.94,4.14
8.097,0.17,-2.33,3.43,4.14
8.107,-0.81,-5.26,1.25,5.47
8.117,-1.43,-7.20,0.36,7.35
8.128,-1.72,-6.59,0.57,6.83
8.137,-1.65,-4.17,0.70,4.54
8.147,-1.09,-1.46,0.86,2.02
8.157,-0.53,0.44,1.43,1.58
8.167,-0.20,1.33,1.99,2.41
8.177,0.06,1.43,2.26,2.68
8.188,0.24,1.01,2.25,2.48
8.197,0.34,0.38,2.07,2.13
8.208,0.15,-0.19,1.87,1.88
8.218,0.19,-1.01,1.52,1.84
8.228,0.32,-1.35,1.26,1.87
8.238,0.49,-1.32,1.01,1.73
8.248,0.81,-1.10,0.75,1.56
8.258,0.82,-0.56,0.49,1.11
8.268,0.72,0.14,0.18,0.75
8.278,0.64,0.82,-0.06,1.04
8.288,0.64,1.37,-0.24,1.54
8.298,0.62,1.82,-0.39,1.96
8.308,0.69,2.07,-0.44,2.23
8.318,0.78,2.24,-0.52,2.43
8.329,0.88,2.33,-0.66,2.58
8.338,0.96,2.27,-0.94,2.64
8.349,1.01,2.15,-1.32,2.72
8.359,1.03,1.92,-1.74,2.78
8.369,1.05,1.51,-2.00,2.71
8.379,1.14,1.04,-2.15,2.65
8.389,1.17,0.59,-2.24,2.60
8.399,1.13,0.26,-2.24,2.52
8.409,1.21,-0.02,-2.14,2.46
8.419,1.23,-0.31,-1.99,2.36
8.429,1.12,-0.61,-1.76,2.18
8.439,1.04,-0.91,-1.41,1.97
8.449,0.93,-1.15,-1.08,1.83
8.459,0.89,-1.24,-1.01,1.83
8.469,0.79,-1.18,-1.06,1.77
8.479,0.78,-1.02,-1.14,1.72
8.490,0.96,-0.71,-1.20,1.69
8.500,1.29,-0.28,-1.20,1.78
8.510,1.51,0.10,-1.19,1.92
8.520,1.55,0.30,-1.16,1.96
8.530,1.24,0.29,-1.12,1.69
8.540,0.92,0.08,-1.07,1.42
8.550,0.68,-0.24,-1.08,1.29
8.560,0.45,-0.76,-1.09,1.40
8.570,0.31,-1.38,-1.14,1.82
8.580,0.32,-2.00,-1.32,2.42
8.590,0.47,-2.37,-1.59,2.89
8.600,0.66,-2.59,-1.87,3.26
8.610,0.77,-2.79,-2.11,3.59
8.620,0.78,-3.06,-2.24,3.87
8.631,0.62,-3.37,-2.22,4.08
8.641,0.32,-3.73,-2.10,4.29
8.651,0.00,-4.08,-1.97,4.53
8.661,-0.29,-4.52,-1.85,4.90
8.671,-0.52,-5.06,-1.74,5.37
8.681,-0.59,-5.46,-1.48,5.68
8.691,-0.41,-5.61,-1.22,5.76
8.701,-0.36,-5.67,-1.07,5.78
8.711,-0.81,-5.26,-1.56,5.54
8.721,-2.18,-4.29,-3.13,5.74
8.731,-4.12,-3.14,-6.76,8.51
8.741,-5.76,-2.19,-11.39,12.95
8.751,-4.55,-1.84,-11.27,12.29
8.761,-2.16,-1.23,-7.98,8.36
8.772,-1.56,-1.13,-3.29,3.82
8.782,-1.63,-1.60,0.44,2.33
8.792,-0.62,-2.05,2.74,3.48
8.802,0.73,-1.93,5.08,5.49
8.812,1.62,-1.27,6.57,6.89
8.822,2.25,-0.68,7.18,7.56
8.832,2.14,-0.74,7.30,7.64
8.842,1.84,-0.97,7.70,7.98
8.852,1.71,-0.92,7.85,8.09
8.862,1.95,-1.03,5.69,6.11
8.872,2.67,-1.48,0.74,3.14
8.882,2.39,-1.81,-2.13,3.68
8.892,1.54,-1.60,-2.46,3.32
8.902,1.74,-1.54,-3.10,3.87
8.913,1.58,-1.45,-3.18,3.84
8.923,0.65,-0.79,-0.76,1.27
8.933,-0.71,-0.19,2.09,2.22
8.943,-1.54,0.27,3.92,4.22
8.953,-1.57,0.51,4.75,5.03
8.963,-1.17,0.74,4.56,4.76
8.973,-0.98,0.73,3.99,4.17
8.983,-0.70,0.67,3.41,3.55
8.993,-0.58,0.66,2.36,2.51
9.003,-0.87,0.71,1.35,1.76
9.013,-1.47,0.97,0.88,1.98
9.023,-1.86,1.29,1.52,2.73
9.033,-1.92,1.57,2.81,3.75
9.043,-1.99,1.74,4.31,5.06
9.054,-2.21,1.93,5.55,6.28
9.064,-2.40,2.12,6.30,7.07
9.074,-2.53,2.37,6.44,7.32
9.084,-2.55,2.65,6.20,7.21
9.094,-2.35,2.89,5.84,6.93
9.104,-1.83,2.90,5.24,6.26
9.114,-1.29,2.61,4.64,5.48
9.124,-0.83,2.14,4.19,4.78
9.134,-0.37,1.79,4.01,4.40
9.144,0.04,1.76,3.98,4.35
9.154,0.33,2.06,4.02,4.53
9.164,0.50,2.56,3.88,4.67
9.174,0.65,3.16,3.64,4.87
9.184,0.99,3.73,3.37,5.12
9.195,1.27,4.22,3.05,5.36
9.205,1.30,4.49,2.59,5.34
9.215,1.17,4.53,1.89,5.04
9.225,1.15,4.27,1.12,4.56
9.235,1.13,3.70,0.35,3.88
9.245,1.26,2.80,-0.28,3.08
9.255,1.42,1.79,-0.56,2.35
9.265,1.49,0.65,-0.73,1.78
9.275,1.43,-0.53,-1.10,1.88
9.285,1.41,-1.86,-2.56,3.47
9.295,1.87,-3.68,-7.38,8.45
9.305,3.26,-6.59,-15.14,16.83
9.315,2.26,-11.09,-17.09,20.50
9.325,-3.42,-15.05,-11.29,19.12
9.335,-7.51,-14.53,-0.25,16.36
9.345,-7.75,-8.65,9.57,15.05
9.356,-5.86,-2.16,10.87,12.54
9.366,-4.32,2.64,7.05,8.68
9.376,-2.68,6.85,1.10,7.44
9.386,-0.16,9.93,-4.43,10.88
9.396,2.18,10.14,-2.40,10.64
9.406,0.36,7.13,2.57,7.59
9.416,-2.94,2.66,3.11,5.04
9.426,-4.17,-1.01,3.27,5.40
9.436,-4.45,-3.42,3.92,6.85
9.446,-4.73,-4.72,3.52,7.55
9.457,-4.47,-4.33,2.53,6.72
9.466,-3.84,-3.73,1.60,5.59
9.477,-2.91,-3.05,1.10,4.35
9.487,-1.85,-2.11,0.90,2.95
9.497,-0.86,-1.47,0.88,1.92
9.507,-0.42,-0.97,1.06,1.50
9.517,-0.36,-0.47,1.18,1.32
9.527,-0.36,-0.11,1.09,1.15
9.537,-0.31,0.08,0.93,0.98
9.547,-0.21,0.08,0.74,0.77
9.557,0.24,-0.08,0.45,0.52
9.567,0.99,-0.31,0.26,1.06
9.577,1.74,-0.49,0.25,1.83
9.587,2.37,-0.60,0.22,2.45
9.597,2.80,-0.67,0.27,2.89
9.607,3.08,-0.72,0.28,3.18
9.618,3.20,-0.62,0.30,3.27
9.628,3.25,-0.52,0.09,3.29
9.638,3.25,-0.42,-0.17,3.28
9.648,3.03,-0.07,-0.40,3.06
9.658,3.01,-0.02,-0.74,3.11
9.668,2.81,0.21,-0.77,2.92
9.678,2.56,0.37,-0.69,2.67
9.688,2.40,0.44,-0.63,2.52
9.698,2.22,0.57,-0.50,2.34
9.708,2.15,0.59,-0.34,2.26
9.718,2.12,0.59,-0.20,2.21
9.728,2.12,0.63,0.01,2.21
9.738,2.16,0.64,0.20,2.26
9.748,2.04,0.75,0.29,2.19
9.759,1.88,0.80,0.36,2.07
9.769,1.77,0.75,0.33,1.95
9.779,1.74,0.60,0.29,1.86
9.789,1.72,0.33,0.19,1.77
9.799,1.69,0.03,0.08,1.69
9.809,1.60,-0.23,-0.02,1.62
9.819,1.48,-0.45,-0.08,1.55
9.829,1.36,-0.51,-0.13,1.45
9.839,1.23,-0.41,-0.12,1.30
9.849,1.14,-0.21,-0.04,1.16
9.859,1.15,0.15,-0.05,1.16
9.869,1.19,0.49,-0.07,1.29
9.879,1.21,0.69,-0.11,1.40
9.889,1.17,0.78,-0.16,1.42
9.900,1.15,0.72,-0.15,1.36
9.909,1.09,0.63,-0.12,1.26
9.920,1.05,0.50,-0.06,1.16
9.930,1.01,0.38,0.02,1.07
9.940,0.92,0.31,0.10,0.98
9.950,0.93,0.28,0.17,0.98
9.960,0.95,0.26,0.24,1.01
9.970,0.94,0.23,0.28,1.00
9.980,0.92,0.24,0.30,1.00
9.990,0.89,0.21,0.30,0.96
10.000,0.83,0.14,0.25,0.87
10.010,0.67,0.05,0.20,0.70
10.020,0.54,-0.16,0.11,0.58
10.030,0.49,-0.50,0.01,0.70
10.040,0.43,-0.91,-0.09,1.01
10.050,0.53,-1.27,-0.21,1.39
10.060,0.77,-1.31,-0.27,1.54
10.071,1.06,-1.05,-0.33,1.53
10.081,1.05,-0.59,-0.37,1.26
10.091,0.97,-0.44,-0.36,1.13
10.101,1.25,-0.86,-0.41,1.57
10.111,1.62,-1.77,-0.58,2.47
10.121,1.83,-3.01,-0.85,3.63
10.131,1.94,-4.54,-1.03,5.04
10.141,2.13,-6.41,-1.01,6.83
10.151,2.61,-8.15,-1.03,8.62
10.161,3.44,-9.00,-2.07,9.86
10.171,4.23,-7.85,-5.42,10.44
10.182,3.87,-4.87,-11.63,13.19
10.192,2.86,-2.28,-13.62,14.10
10.202,2.08,-0.45,-9.13,9.37
10.212,1.69,0.54,-4.96,5.27
10.222,1.22,1.04,-1.55,2.23
10.232,0.61,1.12,0.67,1.44
10.242,0.48,0.97,1.60,1.93
10.252,0.47,0.71,2.14,2.31
10.262,0.35,0.08,2.81,2.83
10.272,0.31,-0.79,3.47,3.57
10.282,0.47,-1.61,4.31,4.62
10.292,0.19,-2.37,5.13,5.66
10.302,-0.21,-2.94,5.73,6.44
10.312,-0.37,-3.14,6.33,7.08
10.322,-0.12,-2.74,6.43,6.99
10.332,0.53,-1.93,5.99,6.31
10.343,0.63,-1.16,6.04,6.18
10.353,0.14,-0.59,5.77,5.80
10.363,-0.05,-0.02,5.19,5.19
10.373,-0.19,0.29,5.40,5.41
10.383,0.03,0.41,5.59,5.61
10.393,0.25,0.24,5.43,5.44
10.403,0.96,-0.46,3.63,3.78
10.413,2.38,-1.77,0.23,2.97
10.423,3.37,-2.07,-1.75,4.32
10.433,3.37,-1.67,-2.05,4.28
10.443,2.99,-0.99,-0.98,3.30
10.453,2.05,-0.41,0.58,2.17
10.463,1.37,0.08,1.54,2.06
10.473,0.72,0.52,2.03,2.22
10.484,-0.19,0.90,2.38,2.56
10.494,-1.19,1.35,2.90,3.41
10.504,-1.93,1.79,3.81,4.63
10.514,-2.25,2.12,4.98,5.86
10.524,-2.12,2.32,4.88,5.80
10.534,-2.04,2.48,4.89,5.85
10.544,-2.20,2.74,5.16,6.25
10.554,-2.41,3.07,5.39,6.65
10.564,-2.70,3.46,5.36,6.93
10.574,-2.91,3.89,5.05,7.01
10.584,-2.89,4.26,4.42,6.79
10.595,-2.78,4.44,3.74,6.43
10.605,-2.71,4.34,3.07,5.96
10.614,-2.65,3.93,2.41,5.32
10.625,-2.54,3.25,1.61,4.43
10.635,-2.49,2.31,0.48,3.43
10.645,-2.41,0.98,-1.56,3.03
10.655,-1.72,-0.80,-5.33,5.66
10.665,-0.37,-2.88,-10.60,10.99
10.675,1.39,-5.49,-16.26,17.22
10.685,3.13,-8.23,-16.12,18.37
10.695,3.87,-8.97,-7.70,12.44
10.705,3.80,-7.69,-0.64,8.60
10.715,2.55,-5.58,0.35,6.14
10.725,0.72,-2.56,-0.23,2.67
10.735,-0.47,0.24,-0.22,0.57
10.745,-0.97,2.19,0.39,2.42
10.755,-1.13,2.70,1.30,3.20
10.766,-1.88,1.21,2.44,3.31
10.776,-2.92,-1.29,3.29,4.58
10.786,-4.06,-3.95,3.74,6.79
10.796,-5.06,-6.62,3.77,9.14
10.806,-5.92,-9.23,-1.11,11.02
10.816,-3.28,-8.29,-3.81,9.69
10.826,-0.35,-2.36,2.24,3.27
10.836,0.64,1.62,4.45,4.78
10.846,1.81,3.92,4.38,6.14
10.856,2.55,5.19,3.92,6.98
10.866,2.96,5.75,3.97,7.59
10.876,2.92,5.38,4.33,7.49
10.887,2.32,3.96,4.89,6.71
10.897,1.79,1.88,5.33,5.93
10.907,1.18,-0.51,5.83,5.97
10.917,0.75,-2.74,6.39,6.99
10.927,0.69,-4.29,6.67,7.96
10.937,0.95,-4.78,6.90,8.45
10.947,1.79,-3.95,6.66,7.94
10.957,2.94,-2.36,5.67,6.81
10.967,3.25,-0.56,4.49,5.57
10.977,2.74,0.56,3.37,4.37
10.987,2.10,0.91,2.23,3.19
10.997,1.47,1.24,1.06,2.19
11.007,0.73,1.42,-0.92,1.84
11.017,-0.21,1.23,-3.95,4.14
11.028,-0.56,0.67,-5.38,5.45
11.037,-0.01,-0.04,-4.47,4.47
11.048,0.82,-0.71,-2.71,2.92
11.058,1.10,-0.92,-1.16,1.85
11.068,0.79,-0.89,-0.10,1.19
11.078,0.61,-0.82,0.33,1.08
11.088,0.48,-0.73,-0.00,0.87
11.098,0.41,-0.52,-0.61,0.90
11.108,0.72,-0.28,-0.94,1.22
11.118,0.77,-0.27,-1.02,1.31
11.128,0.83,-0.36,-1.07,1.40
11.138,0.76,-0.27,-0.79,1.13
11.148,0.49,-0.03,-0.66,0.82
11.158,0.07,0.23,-0.48,0.53
11.169,0.03,0.62,-0.30,0.69
11.178,0.06,0.94,-0.18,0.96
11.189,-0.05,1.10,-0.19,1.12
11.199,-0.21,1.14,-0.25,1.18
11.209,-0.33,0.99,-0.19,1.06
11.219,-0.36,0.82,-0.11,0.90
11.229,-0.34,0.67,-0.02,0.75
11.239,-0.29,0.42,0.10,0.52
11.249,-0.26,0.16,0.10,0.32
11.259,-0.16,-0.19,0.03,0.25
11.269,-0.09,-0.64,-0.05,0.65
11.279,-0.07,-1.11,-0.13,1.11
11.289,0.07,-1.44,-0.28,1.47
11.299,0.28,-1.60,-0.40,1.67
11.309,0.56,-1.64,-0.55,1.82
11.319,1.01,-1.70,-0.75,2.11
11.330,1.49,-1.87,-1.00,2.59
11.340,1.87,-2.19,-1.19,3.11
11.350,2.09,-2.73,-1.29,3.67
11.360,2.20,-3.47,-1.32,4.32
11.370,2.26,-4.30,-1.41,5.06
11.380,2.40,-5.01,-1.57,5.77
11.390,2.70,-5.56,-1.88,6.46
11.400,3.00,-5.97,-2.32,7.07
11.410,3.13,-6.28,-2.87,7.58
11.420,3.00,-6.25,-3.52,7.78
11.430,2.47,-5.61,-4.41,7.55
11.440,1.56,-4.82,-5.27,7.31
11.450,0.74,-3.80,-5.21,6.49
11.460,0.31,-3.04,-4.44,5.39
11.471,0.13,-2.60,-3.27,4.18
11.480,0.19,-2.22,-2.03,3.01
11.491,0.10,-1.98,-1.00,2.22
11.501,-0.20,-2.10,-0.10,2.11
11.511,-0.63,-2.39,0.74,2.58
11.521,-1.25,-2.69,1.84,3.49
11.531,-1.76,-2.94,3.09,4.62
11.541,-1.92,-3.16,4.07,5.49
11.551,-2.20,-3.36,4.24,5.84
11.561,-2.52,-3.65,3.68,5.76
11.571,-2.54,-3.89,2.51,5.28
11.581,-1.92,-3.82,0.31,4.29
11.591,-1.29,-3.40,-1.71,4.02
11.601,-1.12,-2.82,-1.82,3.54
11.612,-0.64,-2.34,-1.30,2.75
11.622,-0.04,-1.97,-0.60,2.06
11.632,0.30,-1.60,-0.07,1.63
11.642,0.17,-1.45,0.28,1.48
11.652,0.32,-1.55,0.92,1.83
11.662,0.18,-1.84,1.32,2.28
11.672,-0.53,-2.07,1.64,2.69
11.682,-0.88,-2.09,2.24,3.19
11.692,-0.78,-1.76,2.90,3.48
11.702,0.36,-1.53,3.01,3.40
11.712,0.62,-1.15,3.13,3.39
11.722,0.71,-0.57,3.34,3.46
11.732,0.93,-0.01,3.37,3.50
11.742,1.23,0.38,3.42,3.65
11.753,1.18,0.84,3.55,3.84
11.762,1.05,1.44,3.99,4.37
11.773,0.70,1.73,4.65,5.01
11.783,0.16,1.80,5.38,5.67
11.793,-0.44,1.87,5.98,6.29
11.803,-0.75,1.97,6.19,6.54
11.813,-1.11,2.52,6.03,6.63
11.823,-1.06,3.02,6.03,6.83
11.833,-1.02,3.44,6.39,7.33
11.843,-1.04,3.89,6.74,7.85
11.853,-1.08,4.30,6.78,8.10
11.863,-1.31,4.56,6.83,8.31
11.873,-1.61,4.66,6.86,8.45
11.883,-1.91,4.65,6.81,8.46
11.893,-2.01,4.54,6.51,8.19
11.903,-1.80,4.21,5.89,7.46
11.914,-1.49,3.53,5.12,6.39
11.924,-1.16,2.87,4.65,5.59
11.934,-0.82,2.57,4.46,5.21
11.944,-0.49,2.58,4.26,5.01
11.954,-0.03,2.63,3.87,4.68
11.964,0.50,2.57,3.58,4.44
11.974,0.89,2.42,3.63,4.46
11.984,1.17,2.19,3.19,4.04
11.994,2.39,1.26,-6.10,6.67
12.004,4.84,-1.90,-24.03,24.59
12.014,0.30,-8.23,-19.98,21.61
12.024,-6.32,-10.32,8.50,14.78
12.034,-8.10,-9.50,17.13,21.20
12.045,-6.35,-8.62,13.22,17.01
12.055,-4.85,-7.80,7.58,11.91
12.065,-2.50,-5.76,-2.39,6.72
12.075,-2.00,-0.96,-7.97,8.27
12.085,-1.73,2.20,-6.27,6.87
12.095,-1.09,2.03,0.63,2.38
12.105,-1.50,0.71,4.58,4.87
12.115,-1.49,-0.81,3.00,3.45
12.125,-1.82,-2.43,-0.32,3.06
12.135,-2.83,-3.37,-1.15,4.55
12.145,-3.56,-2.89,0.13,4.58
12.155,-3.68,-1.74,1.06,4.21
12.165,-3.37,-0.64,1.49,3.74
12.175,-2.53,-0.17,2.01,3.23
12.185,-1.76,-0.11,2.50,3.06
12.196,-1.12,-0.29,2.69,2.93
12.206,-0.66,-0.59,2.63,2.78
12.216,-0.51,-0.86,2.52,2.71
12.226,-0.22,-1.26,2.23,2.57
12.236,0.12,-1.34,1.95,2.37
12.246,0.50,-1.30,1.64,2.15
12.256,0.77,-1.03,1.42,1.92
12.266,0.93,-0.66,1.39,1.80
12.276,1.26,-0.32,1.29,1.83
12.286,1.73,0.10,0.93,1.97
12.296,2.24,0.57,0.28,2.33
12.306,2.70,1.04,-0.53,2.94
12.316,3.20,1.42,-1.41,3.77
12.327,3.38,1.74,-2.15,4.37
12.337,3.21,1.89,-2.53,4.50
12.347,2.92,1.89,-2.69,4.39
12.357,2.43,1.75,-2.79,4.09
12.367,2.01,1.29,-2.69,3.59
12.377,1.61,0.91,-2.65,3.23
12.387,1.20,0.74,-2.56,2.92
12.397,0.87,0.42,-2.47,2.65
12.407,0.53,0.02,-2.36,2.42
12.417,0.33,-0.27,-2.20,2.24
12.427,0.43,-0.42,-1.93,2.02
12.437,0.66,-0.50,-1.71,1.90
12.447,0.87,-0.47,-1.50,1.79
12.457,1.08,-0.41,-1.33,1.76
12.467,1.16,-0.44,-1.26,1.76
12.478,1.23,-0.57,-1.16,1.79
12.488,1.27,-0.72,-1.07,1.81
12.498,1.04,-0.84,-0.99,1.67
12.508,0.85,-0.89,-0.87,1.51
12.518,0.81,-0.76,-0.74,1.34
12.528,0.83,-0.65,-0.63,1.23
12.538,0.91,-0.72,-0.61,1.31
12.548,0.86,-0.93,-0.56,1.39
12.558,0.88,-1.30,-0.58,1.68
12.568,0.98,-1.62,-0.65,2.00
12.578,1.02,-1.96,-0.68,2.31
12.588,1.03,-2.34,-0.65,2.64
12.598,0.89,-2.75,-0.62,2.95
12.608,0.66,-3.22,-0.60,3.34
12.619,0.24,-3.85,-0.58,3.90
12.629,-0.24,-4.84,-0.60,4.88
12.639,-0.53,-5.94,-0.75,6.01
12.649,-0.63,-6.70,-0.96,6.80
12.659,-0.79,-7.17,-1.13,7.30
12.669,-1.25,-6.90,-1.49,7.17
12.679,-2.44,-5.79,-2.53,6.77
12.689,-4.26,-4.35,-4.93,7.84
12.699,-6.50,-3.06,-9.12,11.60
12.709,-8.16,-2.13,-12.66,15.21
12.719,-6.81,-1.53,-10.92,12.96
12.729,-4.32,-0.81,-6.24,7.64
12.739,-3.14,-0.53,-1.84,3.68
12.749,-2.47,-1.15,0.98,2.90
12.760,-1.58,-1.54,3.20,3.89
12.770,-0.11,-1.30,5.75,5.89
12.780,1.50,-0.79,7.19,7.39
12.790,2.46,-0.64,6.80,7.26
12.800,2.22,-1.00,7.03,7.44
12.810,2.05,-1.22,7.16,7.55
12.820,2.39,-1.57,5.98,6.62
12.830,3.10,-2.19,3.06,4.87
12.840,2.95,-2.66,0.41,3.99
12.850,1.48,-2.78,-0.01,3.15
12.860,1.15,-2.67,-1.13,3.12
12.870,1.49,-2.00,-2.95,3.86
12.881,1.21,-1.33,-2.55,3.12
12.891,0.34,-0.66,-0.65,0.98
12.901,-0.74,0.22,1.47,1.66
12.911,-1.37,1.02,3.13,3.56
12.921,-1.55,1.72,3.99,4.61
12.931,-1.56,2.44,4.11,5.03
12.941,-1.37,3.09,3.89,5.15
12.951,-1.05,3.44,3.72,5.17
12.961,-1.02,3.67,3.78,5.36
12.971,-1.19,3.78,3.76,5.46
12.981,-1.49,3.94,3.64,5.56
12.991,-1.64,3.89,3.75,5.64
13.001,-1.72,3.84,4.24,5.97
13.011,-1.86,3.70,4.86,6.38
13.021,-1.77,3.56,5.63,6.89
13.031,-1.46,3.51,6.32,7.37
13.042,-1.26,3.55,6.76,7.74
13.052,-1.22,3.74,6.77,7.83
13.062,-1.23,4.07,6.36,7.65
13.072,-1.37,4.34,5.97,7.51
13.082,-1.38,4.40,5.86,7.46
13.092,-1.16,4.37,5.91,7.44
13.102,-0.74,4.21,5.66,7.10
13.112,-0.23,3.99,4.74,6.20
13.122,0.21,3.75,3.26,4.98
13.132,0.69,3.36,1.64,3.81
13.142,0.99,2.96,0.32,3.14
13.152,1.74,2.33,-3.15,4.29
13.162,4.48,0.63,-12.80,13.58
13.172,6.72,-3.58,-18.88,20.36
13.183,1.81,-8.18,-7.03,10.93
13.193,-3.35,-8.77,11.39,14.76
13.203,-4.08,-9.84,11.92,15.99
13.213,-4.27,-11.65,4.76,13.29
13.223,-5.77,-10.51,-1.71,12.11
13.233,-7.23,-4.86,-5.68,10.40
13.243,-4.89,1.01,-5.00,7.07
13.253,-1.65,3.57,-0.81,4.02
13.263,-0.21,3.56,2.60,4.41
13.273,0.46,2.12,1.96,2.93
13.283,0.75,0.05,-1.06,1.30
13.293,-1.16,-2.18,-0.84,2.61
13.303,-3.37,-3.33,1.28,4.91
13.313,-4.31,-3.31,1.89,5.75
13.324,-4.19,-2.63,1.48,5.16
13.333,-3.38,-2.13,1.16,4.16
13.344,-2.69,-1.84,1.61,3.63
13.354,-2.12,-1.79,2.16,3.51
13.364,-1.65,-1.70,2.47,3.42
13.374,-1.09,-1.43,2.57,3.13
13.384,-0.47,-1.06,2.44,2.70
13.394,0.10,-0.60,2.03,2.12
13.404,0.67,-0.05,1.44,1.59
13.414,1.16,0.47,0.78,1.48
13.424,1.42,0.89,0.30,1.71
13.434,1.44,1.12,0.03,1.83
13.444,1.30,1.23,-0.04,1.79
13.454,1.18,1.29,0.00,1.75
13.465,1.18,1.33,0.06,1.78
13.474,1.26,1.38,0.11,1.87
13.485,1.45,1.47,0.13,2.07
13.495,1.69,1.49,0.01,2.26
13.505,1.86,1.56,-0.30,2.45
13.515,2.06,1.78,-0.71,2.81
13.525,2.13,1.92,-1.09,3.07
13.535,2.10,1.90,-1.49,3.20
13.545,1.84,1.74,-1.78,3.10
13.555,1.54,1.44,-2.08,2.96
13.565,1.24,1.15,-2.35,2.90
13.575,0.97,0.90,-2.64,2.95
13.585,0.78,0.53,-2.79,2.94
13.595,0.64,0.14,-2.83,2.90
13.606,0.76,-0.32,-2.56,2.69
13.616,1.02,-0.81,-2.20,2.55
13.626,1.22,-1.19,-1.89,2.54
13.636,1.40,-1.40,-1.63,2.56
13.646,1.44,-1.46,-1.48,2.53
13.656,1.43,-1.24,-1.49,2.41
13.666,1.44,-0.98,-1.54,2.32
13.676,1.35,-0.82,-1.57,2.23
13.686,1.09,-0.75,-1.56,2.05
13.696,0.94,-0.87,-1.58,2.03
13.706,0.92,-1.10,-1.48,2.06
13.716,0.86,-1.30,-1.30,2.03
13.726,0.82,-1.41,-1.06,1.94
13.737,0.87,-1.54,-0.89,1.98
13.747,0.85,-1.73,-0.86,2.11
13.756,0.71,-2.04,-0.87,2.32
13.767,0.45,-2.36,-0.84,2.54
13.777,0.10,-2.72,-0.73,2.81
13.787,-0.32,-3.02,-0.63,3.10
13.797,-0.74,-3.44,-0.61,3.57
13.807,-1.00,-4.36,-0.69,4.52
13.817,-1.00,-5.46,-0.73,5.60
13.827,-0.76,-6.13,-0.51,6.19
13.837,-0.56,-6.31,0.03,6.34
13.847,-1.02,-6.03,0.45,6.13
13.857,-2.29,-5.33,0.34,5.81
13.867,-3.30,-4.42,-0.07,5.52
13.877,-4.51,-3.08,-1.52,5.67
13.888,-5.94,-1.37,-5.48,8.19
13.897,-7.19,-0.04,-11.19,13.30
13.908,-5.77,0.36,-11.14,12.55
13.918,-4.09,0.15,-8.05,9.03
13.928,-3.38,-0.59,-4.52,5.67
13.938,-3.00,-1.35,-0.77,3.38
13.948,-2.11,-1.78,2.12,3.48
13.958,-0.88,-1.53,4.48,4.82
13.968,0.64,-1.21,4.67,4.86
13.978,1.12,-1.40,4.17,4.53
13.988,1.02,-1.42,4.43,4.76
13.998,1.26,-1.15,4.22,4.55
14.008,1.49,-1.14,4.04,4.45
14.018,1.44,-0.98,3.40,3.82
14.029,1.18,-0.39,2.56,2.84
14.039,0.61,0.26,2.64,2.73
14.049,0.86,0.36,1.13,1.47
14.059,1.97,-0.32,-2.89,3.51
14.069,1.97,-1.11,-4.23,4.80
14.079,0.62,-1.07,-1.96,2.32
14.089,-0.55,-0.64,0.90,1.23
14.099,-0.89,-0.11,3.04,3.17
14.109,-0.88,0.61,4.38,4.51
14.119,-0.64,1.37,4.98,5.20
14.129,-0.38,1.98,4.54,4.97
14.139,-0.51,2.29,3.65,4.34
14.149,-0.83,2.41,2.97,3.91
14.159,-1.34,2.55,2.54,3.84
14.169,-1.73,2.59,2.41,3.94
14.179,-1.67,2.57,2.64,4.04
14.190,-1.42,2.56,3.17,4.31
14.200,-1.34,2.72,4.04,5.05
14.210,-1.33,2.97,4.97,5.94
14.220,-1.07,3.22,5.83,6.74
14.230,-0.74,3.63,6.44,7.43
14.240,-0.57,4.17,6.42,7.68
14.250,-0.46,4.66,6.12,7.71
14.260,-0.47,5.09,5.79,7.73
14.270,-0.41,5.25,5.31,7.48
14.280,-0.11,4.95,4.75,6.87
14.290,0.49,4.23,3.97,5.82
14.300,1.00,3.20,3.03,4.52
14.310,1.25,2.21,2.24,3.39
14.320,1.10,1.50,1.71,2.53
14.331,0.87,1.05,1.30,1.89
14.341,0.88,0.93,1.13,1.71
14.351,1.02,1.05,1.14,1.85
14.361,1.59,1.07,-1.08,2.20
14.371,3.58,0.14,-9.76,10.40
14.381,5.26,-2.38,-17.14,18.09
14.391,0.69,-6.18,-14.00,15.32
14.401,-4.35,-7.28,3.07,9.02
14.411,-5.50,-6.25,12.46,14.99
14.421,-4.90,-5.76,11.36,13.64
14.431,-4.81,-5.44,5.83,9.31
14.441,-4.98,-3.68,-2.27,6.60
14.451,-4.37,0.53,-5.33,6.91
14.461,-1.35,2.54,-3.73,4.71
14.472,0.42,2.03,0.20,2.08
14.482,0.25,0.37,2.26,2.31
14.492,-0.70,-1.72,0.90,2.06
14.502,-1.87,-3.27,-0.38,3.78
14.512,-2.83,-3.33,0.96,4.47
14.522,-3.35,-2.44,1.91,4.56
14.532,-3.30,-1.55,1.53,3.95
14.542,-3.01,-0.64,0.95,3.22
14.552,-2.79,-0.02,1.09,3.00
14.562,-2.81,-0.03,1.83,3.35
14.572,-2.46,-0.66,2.47,3.55
14.582,-2.16,-1.17,2.77,3.70
14.592,-1.99,-1.52,2.76,3.73
14.602,-1.48,-1.87,2.40,3.38
14.613,-0.88,-1.77,2.01,2.82
14.623,-0.32,-1.41,1.68,2.22
14.633,0.23,-0.86,1.42,1.68
14.643,0.73,-0.26,1.16,1.39
14.653,1.24,0.32,0.90,1.56
14.663,1.65,0.84,0.66,1.96
14.673,1.95,1.35,0.45,2.42
14.683,2.19,1.81,0.19,2.85
14.693,2.46,2.16,-0.23,3.28
14.703,2.71,2.42,-0.83,3.73
14.713,2.92,2.51,-1.55,4.15
14.723,3.16,2.32,-2.14,4.46
14.733,3.22,2.01,-2.42,4.50
14.744,3.11,1.64,-2.57,4.36
14.754,2.83,1.35,-2.60,4.07
14.764,2.53,0.94,-2.59,3.74
14.774,2.12,0.55,-2.55,3.36
14.784,1.66,0.09,-2.31,2.85
14.794,1.36,-0.30,-2.03,2.46
14.804,1.09,-0.49,-1.84,2.19
14.814,0.73,-0.59,-1.64,1.89
14.824,0.48,-0.57,-1.63,1.79
14.834,0.42,-0.60,-1.82,1.96
14.844,0.45,-0.65,-1.95,2.10
14.854,0.50,-0.82,-1.90,2.13
14.864,0.58,-0.94,-1.92,2.21
14.875,0.67,-1.05,-1.98,2.34
14.884,0.70,-1.22,-1.95,2.40
14.895,0.61,-1.24,-1.94,2.38
14.905,0.58,-1.04,-1.84,2.19
14.915,0.60,-0.78,-1.58,1.86
14.925,0.61,-0.60,-1.44,1.67
14.935,0.63,-0.53,-1.35,1.59
14.945,0.59,-0.68,-1.29,1.58
14.955,0.44,-1.02,-1.26,1.67
14.965,0.15,-1.51,-1.20,1.94
14.975,-0.20,-2.13,-1.08,2.40
14.985,-0.50,-2.70,-1.00,2.92
14.995,-0.70,-3.09,-0.97,3.31
15.005,-0.75,-3.48,-0.99,3.70
15.015,-0.64,-4.25,-0.95,4.40
15.025,-0.28,-4.96,-0.85,5.04
15.035,-0.01,-5.49,-0.70,5.54
15.046,0.15,-6.08,-0.38,6.10
15.056,0.13,-6.48,0.12,6.48
15.066,-0.77,-6.35,0.57,6.42
15.076,-1.89,-5.62,0.94,6.00
15.086,-2.50,-4.50,1.29,5.30
15.096,-2.73,-2.88,1.57,4.27
15.106,-3.00,-0.86,0.78,3.21
15.116,-4.38,1.17,-4.43,6.34
15.126,-6.04,1.88,-14.94,16.23
15.136,-5.07,1.04,-13.93,14.86
15.146,-3.35,0.03,-8.35,8.99
15.156,-1.99,-1.51,-2.79,3.75
15.166,-1.79,-3.21,2.07,4.21
15.176,-1.26,-3.37,5.16,6.29
15.186,-0.76,-3.23,6.41,7.22
15.197,-0.29,-2.35,6.35,6.78
15.207,-1.82,-2.18,6.12,6.75
15.217,-2.37,-1.85,6.17,6.86
15.227,-3.27,-2.22,6.17,7.33
15.237,-1.28,-0.42,4.75,4.93
15.247,1.65,2.26,2.37,3.67
15.257,2.06,2.54,-0.16,3.28
15.267,1.53,1.29,-2.61,3.29
15.277,0.46,0.10,-3.71,3.74
15.287,-0.53,-0.58,-2.81,2.92
15.297,-0.72,-0.13,0.21,0.76
15.307,-0.53,0.19,3.27,3.31
15.317,-0.30,0.26,4.77,4.79
15.327,0.10,0.55,4.60,4.63
15.338,0.16,0.94,3.97,4.08
15.348,-0.06,1.39,3.37,3.65
15.358,-0.12,1.80,2.70,3.25
15.368,-0.22,1.91,2.02,2.79
15.378,-0.39,1.93,1.58,2.53
15.388,-0.51,1.92,1.94,2.78
15.398,-0.69,1.68,2.56,3.14
15.408,-0.99,1.48,3.17,3.64
15.418,-1.35,1.37,3.49,3.98
15.428,-1.48,1.38,3.64,4.17
15.439,-1.43,1.43,3.70,4.21
15.448,-1.54,1.49,3.73,4.30
15.459,-1.49,1.36,3.61,4.13
15.469,-1.10,1.13,3.71,4.03
15.479,-0.70,1.13,3.88,4.10
15.489,-0.54,1.36,4.13,4.38
15.499,-0.19,1.81,4.29,4.66
15.509,0.12,2.33,4.25,4.85
15.519,0.35,2.69,4.26,5.06
15.529,0.37,2.65,4.16,4.94
15.539,0.54,2.77,3.81,4.74
15.549,1.02,3.12,3.42,4.74
15.559,1.17,2.99,3.23,4.56
15.569,1.33,2.84,3.12,4.42
15.579,1.55,3.00,3.19,4.65
15.589,1.65,3.00,3.22,4.70
15.600,1.62,2.72,3.12,4.45
15.609,1.48,2.41,2.87,4.03
15.620,1.10,2.19,2.68,3.63
15.630,0.70,2.07,2.64,3.42
15.640,0.35,1.96,2.13,2.91
15.650,0.64,2.00,-3.32,3.93
15.660,1.88,0.48,-18.68,18.78
15.670,1.23,-3.83,-20.69,21.08
15.680,-3.09,-8.53,-11.74,14.83
15.690,-5.54,-10.62,-4.87,12.93
15.700,-5.47,-9.00,6.25,12.25
15.710,-4.12,-5.58,12.69,14.46
15.720,-2.92,-2.56,11.90,12.52
15.730,-2.70,0.62,7.13,7.65
15.740,-2.64,5.07,1.64,5.95
15.750,-1.36,7.97,-1.41,8.21
15.761,0.35,7.35,-5.19,9.01
15.771,1.67,3.58,-5.99,7.18
15.781,1.49,-1.06,-2.54,3.13
15.791,0.50,-3.96,1.88,4.41
15.801,-0.33,-5.90,4.81,7.62
15.811,-1.44,-7.26,4.11,8.46
15.821,-2.55,-7.74,1.38,8.27
15.831,-2.76,-6.81,-0.82,7.40
15.841,-1.89,-3.51,-2.34,4.62
15.851,-1.08,-0.48,-2.17,2.47
15.862,0.02,1.35,-0.78,1.56
15.872,0.90,2.22,0.42,2.44
15.882,1.47,2.27,0.95,2.87
15.891,1.79,1.87,1.05,2.79
15.902,1.24,1.04,0.91,1.86
15.912,0.35,0.28,0.30,0.54
15.922,-0.15,-0.16,-0.50,0.55
15.932,-0.38,-0.12,-0.39,0.56
15.942,-0.70,0.44,1.01,1.30
15.952,-1.22,0.45,2.14,2.51
15.962,-1.26,0.26,2.75,3.03
15.972,-1.44,0.05,3.27,3.57
15.982,-0.73,0.25,3.16,3.25
15.992,-0.18,0.87,2.67,2.81
16.002,0.65,1.47,1.91,2.50
16.012,0.84,1.76,1.24,2.31
16.023,0.87,1.07,0.28,1.41
16.032,0.89,0.79,-0.52,1.30
16.043,0.32,-0.25,-1.08,1.16
16.053,0.29,-0.08,-0.93,0.98
16.063,-0.26,-0.44,-0.72,0.88
16.073,-0.37,-0.21,-0.54,0.68
16.083,-0.26,0.17,-0.39,0.50
16.093,-0.19,0.31,-0.32,0.49
16.103,-0.05,0.31,-0.26,0.40
16.113,0.23,0.26,-0.11,0.36
16.123,0.18,0.09,0.06,0.21
16.133,0.25,0.18,0.24,0.39
16.143,0.27,0.09,0.28,0.40
16.153,0.31,-0.11,0.21,0.39
16.163,0.38,-0.19,0.10,0.43
16.173,0.56,0.03,-0.05,0.56
16.184,0.84,0.38,-0.11,0.93
16.194,0.76,-0.04,-0.35,0.84
16.204,0.95,-0.10,-0.50,1.08
16.214,1.18,-0.11,-0.53,1.30
16.224,0.96,-0.05,-0.64,1.15
16.234,0.64,-0.06,-0.79,1.02
16.244,0.07,-0.28,-0.79,0.84
16.254,-0.47,-0.39,-0.64,0.89
16.264,-0.66,-0.25,-0.34,0.78
16.274,-0.71,-0.10,-0.24,0.76
16.284,-0.64,-0.15,-0.24,0.70
16.294,-0.40,0.05,-0.33,0.52
16.305,-0.05,0.21,-0.42,0.47
16.314,0.20,0.13,-0.23,0.33
16.325,0.18,0.22,-0.10,0.30
16.335,0.30,0.01,-0.02,0.30
16.345,0.27,-0.05,0.16,0.32
16.355,0.43,-0.19,0.21,0.51
16.365,0.50,0.28,0.09,0.58
16.375,0.81,0.77,0.09,1.12
16.385,0.68,0.59,0.35,0.96
16.395,0.24,0.12,0.57,0.62
16.405,0.09,-1.07,0.67,1.26
16.415,0.04,-2.01,0.77,2.16
16.425,0.32,-1.51,1.16,1.93
16.435,0.78,-0.10,1.04,1.30
16.446,0.99,0.59,0.44,1.23
16.455,0.85,-0.77,-0.13,1.16
16.466,0.68,-1.42,-0.47,1.64
16.475,-0.02,-1.92,-0.50,1.98
16.486,-0.72,-2.49,-0.15,2.60
16.496,-1.20,-3.17,-0.13,3.39
16.506,-1.43,-3.14,-0.33,3.46
16.516,-1.37,-2.45,-0.42,2.84
16.526,-1.24,-1.60,-0.26,2.04
16.536,-1.03,-0.79,0.04,1.30
16.546,-0.92,-0.33,0.48,1.09
16.556,-0.86,-0.21,0.85,1.22
16.566,-0.88,-0.14,0.92,1.28
16.576,-1.04,-0.07,0.84,1.34
16.586,-1.25,-0.28,0.76,1.49
16.596,-1.46,-0.36,0.88,1.74
16.607,-1.64,-0.82,0.92,2.05
16.617,-1.74,-1.20,0.72,2.23
16.627,-1.87,-1.77,0.39,2.61
16.637,-2.09,-2.36,0.06,3.15
16.647,-2.08,-2.90,-0.23,3.57
16.657,-1.96,-3.19,-0.41,3.77
16.667,-1.71,-3.23,-0.40,3.68
16.677,-1.19,-3.06,-0.43,3.32
16.687,-0.79,-2.17,-0.17,2.32
16.697,-0.43,-1.95,-0.08,2.00
16.707,0.04,-1.44,0.48,1.52
16.717,0.12,-1.44,0.54,1.54
16.727,0.04,-0.55,0.56,0.79
16.738,0.37,-0.19,0.43,0.60
16.748,0.63,-0.13,-0.16,0.66
16.758,0.37,0.10,-1.30,1.36
16.768,0.14,-0.49,-1.65,1.73
16.778,-0.01,-0.97,-0.86,1.30
16.788,-0.51,-1.24,0.90,1.61
16.798,-1.13,-0.86,2.42,2.80
16.808,-1.33,-0.16,3.25,3.52
16.818,-1.34,-0.07,3.29,3.55
16.828,-1.35,-0.54,2.17,2.61
16.838,-0.30,-1.68,1.01,1.98
16.848,1.66,-1.71,-0.36,2.41
16.858,1.49,-2.33,-0.70,2.85
16.868,0.38,-2.30,-1.42,2.73
16.878,-1.74,-1.65,-2.76,3.66
16.889,-3.64,-1.05,-4.15,5.62
16.899,-5.22,-0.98,-4.80,7.16
16.909,-5.68,-0.50,-6.00,8.28
16.919,-4.97,0.24,-7.04,8.62
16.929,-3.68,0.98,-8.52,9.34
16.939,-2.38,1.95,-9.88,10.34
16.949,-0.66,2.55,-9.02,9.40
16.959,2.01,2.97,-6.55,7.47
16.969,4.83,2.57,-4.61,7.15
16.979,7.70,1.82,-2.57,8.32
16.989,10.08,1.55,-0.77,10.23
16.999,10.90,1.97,2.06,11.26
17.010,10.21,2.08,5.24,11.67
17.019,8.02,1.16,7.42,10.99
17.030,5.07,-0.62,8.09,9.56
17.040,2.85,-1.54,7.69,8.34
17.050,2.08,-1.07,7.96,8.30
17.060,2.06,0.42,8.15,8.42
17.070,2.53,2.18,8.01,8.68
17.080,2.70,2.98,7.25,8.29
17.090,2.73,3.00,6.47,7.64
17.100,2.78,2.79,5.89,7.09
17.110,2.61,2.26,5.15,6.20
17.120,2.62,2.25,4.58,5.74
17.130,2.43,2.53,4.03,5.35
17.140,1.76,2.72,3.16,4.53
17.150,0.86,2.54,2.02,3.35
17.160,-0.30,1.89,0.96,2.14
17.171,-1.32,1.12,0.49,1.80
17.181,-1.94,0.42,0.65,2.09
17.191,-2.08,0.24,1.00,2.32
17.201,-2.03,0.30,0.96,2.27
17.211,-2.23,0.22,0.42,2.28
17.221,-2.45,0.26,-0.12,2.47
17.231,-2.77,0.04,-0.44,2.80
17.241,-3.15,-0.32,-0.55,3.22
17.251,-3.61,-0.75,-0.48,3.72
17.261,-3.97,-1.22,-0.24,4.16
17.271,-4.19,-1.67,-0.03,4.51
17.281,-4.31,-2.28,-0.22,4.88
17.291,-4.16,-2.25,-0.54,4.76
17.301,-4.00,-1.97,-0.80,4.53
17.312,-4.01,-2.16,-0.94,4.65
17.322,-3.81,-2.09,-0.68,4.40
17.332,-3.48,-2.01,-0.14,4.02
17.342,-3.26,-2.61,0.04,4.18
17.352,-2.83,-2.72,0.08,3.93
17.362,-2.44,-2.68,-0.07,3.62
17.372,-2.07,-2.19,-0.29,3.03
17.382,-2.05,-1.76,-0.65,2.79
17.392,-2.38,-1.73,-0.99,3.10
17.402,-2.76,-1.99,-1.33,3.65
17.412,-3.04,-2.28,-1.43,4.05
17.422,-2.42,-2.88,-0.58,3.81
17.432,-0.65,-3.20,0.64,3.33
17.442,0.47,-3.31,0.75,3.43
17.453,0.99,-2.65,0.58,2.89
17.463,1.09,-2.03,0.72,2.41
17.473,0.86,-1.77,-0.89,2.16
17.483,-0.63,-1.57,-1.58,2.32
17.493,-1.66,-1.54,-2.04,3.05
17.503,-3.17,-1.54,-1.88,3.99
17.513,-3.55,-1.89,-1.62,4.34
17.523,-0.91,-3.02,-1.07,3.33
17.533,1.61,-3.34,-0.84,3.80
17.543,1.43,-3.48,-0.10,3.77
17.553,0.57,-4.16,-0.33,4.21
17.563,0.89,-3.81,-1.09,4.06
17.573,1.54,-2.79,-0.59,3.24
17.583,1.75,-2.52,0.48,3.11
17.593,1.44,-2.96,0.69,3.37
17.604,0.91,-3.47,0.29,3.60
17.614,0.19,-3.28,0.33,3.30
17.624,0.39,-3.11,0.57,3.18
17.634,0.12,-2.41,0.04,2.42
17.644,0.33,-1.60,-0.01,1.63
17.654,0.78,-1.35,0.74,1.72
17.664,0.64,-1.37,0.73,1.67
17.674,0.67,-1.41,0.61,1.68
17.684,0.81,-1.37,0.78,1.77
17.694,0.92,-1.41,0.71,1.83
17.704,1.11,-1.81,0.56,2.20
17.714,1.45,-2.10,0.67,2.64
17.724,0.70,-2.13,0.16,2.25
17.734,0.07,-1.48,-0.62,1.61
17.744,-0.09,-0.67,-0.72,0.98
17.755,-0.15,-0.56,-0.26,0.64
17.765,-0.30,-0.56,-0.34,0.72
17.775,-0.11,-0.52,-0.46,0.71
17.785,0.50,-0.63,-0.66,1.03
17.795,1.00,-0.76,-1.16,1.71
17.805,1.19,-0.72,-1.34,1.93
17.815,1.18,-0.39,-1.24,1.75
17.825,0.96,-0.17,-1.17,1.52
17.835,0.44,-0.43,-0.86,1.06
17.845,0.13,-0.32,-0.49,0.60
17.855,-0.00,-0.13,-0.33,0.35
17.865,-0.17,-0.10,-0.10,0.22
17.875,-0.18,0.09,-0.04,0.21
17.886,-0.12,0.16,-0.18,0.27
17.896,-0.02,0.05,-0.22,0.23
17.906,0.03,-0.11,-0.10,0.15
17.916,0.02,-0.25,0.11,0.28
17.926,0.04,-0.39,0.33,0.51
17.936,0.18,-0.45,0.44,0.66
17.946,0.09,-0.35,0.28,0.46
17.956,-0.06,-0.37,0.10,0.38
17.966,0.19,-0.48,0.20,0.55
17.976,0.36,-0.57,0.14,0.69
17.986,0.29,-0.59,0.13,0.67
17.996,0.43,-0.58,0.04,0.73
18.006,0.58,-0.89,-0.16,1.08
18.017,0.65,-0.98,-0.31,1.22
18.026,0.57,-0.70,-0.33,0.96
18.037,0.36,-0.44,-0.32,0.65
18.047,0.13,-0.28,-0.39,0.50
18.057,0.02,-0.21,-0.28,0.35
18.067,0.09,-0.12,-0.19,0.25
18.077,0.14,-0.10,-0.30,0.34
18.087,0.13,-0.11,-0.29,0.33
18.097,0.26,0.00,-0.22,0.34
18.107,0.38,0.16,-0.42,0.59
18.117,0.27,0.24,-0.48,0.60
18.127,0.10,0.26,-0.34,0.44
18.137,0.08,0.26,-0.21,0.35
18.147,-0.10,-0.02,0.06,0.12
18.157,-0.08,0.02,0.35,0.36
18.167,-0.05,0.20,0.37,0.42
18.178,-0.03,0.18,0.27,0.33
18.188,0.07,0.05,0.20,0.22
18.198,0.21,0.07,0.13,0.26
18.208,0.29,0.09,0.05,0.31
18.218,0.32,0.04,0.07,0.33
18.228,0.26,0.01,0.17,0.31
18.238,0.21,-0.09,0.31,0.39
18.248,0.28,-0.12,0.35,0.46
18.258,0.39,-0.11,0.25,0.48
18.268,0.49,-0.11,0.21,0.54
18.278,0.54,-0.10,0.11,0.56
18.288,0.51,-0.03,-0.01,0.51
18.298,0.45,0.05,-0.11,0.46
18.309,0.47,-0.06,-0.17,0.51
18.319,0.56,-0.51,-0.09,0.76
18.329,0.46,-0.48,0.14,0.68
18.339,0.53,-0.38,0.18,0.68
18.349,0.52,-0.33,0.15,0.63
18.359,0.41,-0.24,0.17,0.50
18.369,0.16,-0.15,0.14,0.26
18.379,0.02,-0.17,0.11,0.20
18.389,0.08,-0.19,0.05,0.22
18.399,0.18,-0.17,0.08,0.27
18.409,0.21,-0.14,0.11,0.27
18.419,0.14,-0.08,0.17,0.23
18.429,0.12,-0.08,0.04,0.15
18.439,0.07,-0.07,-0.01,0.10
18.449,0.27,-0.14,-0.03,0.30
18.460,0.35,-0.20,-0.09,0.41
18.470,0.40,-0.22,-0.10,0.47
18.480,0.12,-0.13,0.09,0.20
18.490,-0.03,-0.06,0.05,0.08
18.500,-0.23,0.06,0.14,0.28
18.510,-0.05,-0.05,0.00,0.07
18.520,-0.00,-0.11,-0.00,0.11
18.530,0.20,-0.17,0.11,0.29
18.540,0.23,-0.16,-0.14,0.31
18.550,0.13,-0.04,-0.05,0.15
18.560,0.06,-0.02,0.01,0.06
18.570,0.03,0.07,0.13,0.15
18.580,0.27,0.15,-0.04,0.31
18.590,0.15,0.03,-0.04,0.16
18.601,0.05,-0.10,0.07,0.13
18.610,0.00,-0.13,0.07,0.15
18.621,0.22,-0.13,-0.22,0.34
18.631,0.09,-0.17,-0.24,0.30
18.641,0.15,-0.14,0.04,0.21
18.651,0.06,-0.19,0.23,0.30
18.661,0.05,-0.11,0.18,0.22
18.671,0.00,-0.18,0.19,0.26
18.681,0.03,-0.23,0.09,0.25
18.691,0.16,-0.18,-0.10,0.26
18.701,0.28,0.04,-0.16,0.32
18.711,0.31,0.13,-0.47,0.58
18.721,0.08,0.04,-0.33,0.34
18.731,-0.16,0.13,-0.21,0.30
18.742,-0.14,0.22,-0.17,0.31
18.752,-0.19,0.21,-0.07,0.29
18.762,-0.28,0.07,0.11,0.31
18.772,-0.23,0.04,0.09,0.25
18.782,-0.07,0.12,-0.14,0.20
18.792,0.05,0.14,-0.31,0.34
18.802,-0.02,0.19,-0.25,0.31
18.812,0.09,0.14,-0.31,0.36
18.822,0.08,0.14,-0.41,0.44
18.832,0.08,0.00,-0.12,0.14
18.842,0.19,-0.06,-0.05,0.21
18.852,0.25,0.00,-0.02,0.25
18.862,0.16,0.07,0.14,0.23
18.872,0.06,0.09,0.21,0.23
18.883,0.04,0.03,0.24,0.25
18.893,0.15,-0.04,0.21,0.26
18.903,0.27,-0.08,0.08,0.30
18.913,0.32,-0.09,0.04,0.33
18.923,0.27,-0.09,0.13,0.31
18.933,0.24,-0.00,0.15,0.29
18.943,0.20,-0.05,0.22,0.30
18.953,0.07,-0.03,0.30,0.31
18.963,0.04,0.04,0.23,0.24
18.973,0.12,0.04,0.02,0.13
18.983,0.07,-0.01,-0.15,0.16
18.993,0.05,-0.01,-0.19,0.19
19.003,0.09,0.03,-0.19,0.21
19.013,0.05,-0.02,-0.21,0.21
19.023,0.15,-0.20,-0.25,0.35
19.033,0.36,-0.23,-0.04,0.43
19.044,0.51,-0.10,-0.08,0.53
19.054,0.28,-0.05,-0.15,0.33
19.064,0.11,-0.02,-0.38,0.40
19.074,-0.04,0.31,-0.49,0.58
19.084,-0.07,0.27,-0.46,0.54
19.094,-0.09,0.11,0.01,0.14
19.104,-0.05,-0.09,0.68,0.68
19.114,0.04,-0.21,0.95,0.98
