time,ax,ay,az,atotal
0.000,-0.21,-0.67,-0.50,0.86
0.010,-0.29,-0.46,-0.47,0.72
0.020,-0.20,-0.37,-0.44,0.61
0.030,-0.15,-0.06,-0.25,0.30
0.040,-0.01,0.28,-0.13,0.31
0.050,0.07,0.56,-0.04,0.57
0.060,0.14,0.73,0.13,0.75
0.070,0.52,0.64,0.01,0.82
0.080,0.61,0.60,-0.13,0.87
0.091,0.38,0.52,-0.30,0.71
0.101,0.16,0.34,-0.54,0.66
0.111,0.03,0.09,-0.77,0.77
0.121,-0.08,-0.15,-0.98,0.99
0.131,-0.29,-0.31,-1.02,1.10
0.141,-0.48,-0.36,-0.91,1.09
0.151,-0.50,-0.30,-0.63,0.86
0.161,-0.43,-0.18,-0.29,0.55
0.171,-0.35,-0.12,0.07,0.38
0.181,-0.30,-0.09,0.37,0.48
0.191,-0.24,-0.12,0.55,0.61
0.201,-0.16,-0.17,0.60,0.64
0.211,-0.13,-0.20,0.54,0.59
0.221,-0.10,-0.16,0.38,0.43
0.231,-0.04,-0.05,0.21,0.22
0.242,-0.04,0.06,0.12,0.14
0.252,-0.08,0.12,0.07,0.16
0.262,-0.12,0.10,0.06,0.17
0.272,-0.16,0.05,0.04,0.17
0.282,-0.23,-0.03,0.00,0.24
0.292,-0.34,-0.11,-0.05,0.36
0.302,-0.37,-0.16,-0.10,0.42
0.312,-0.37,-0.14,-0.15,0.42
0.322,-0.31,-0.02,-0.10,0.33
0.332,-0.21,0.06,-0.05,0.23
0.342,-0.13,0.10,-0.00,0.16
0.352,-0.10,0.08,0.04,0.13
0.362,-0.05,0.03,0.05,0.08
0.372,-0.08,0.02,0.06,0.11
0.382,-0.07,0.07,0.05,0.11
0.393,0.03,0.14,0.01,0.14
0.403,0.15,0.20,-0.04,0.25
0.413,0.20,0.24,-0.08,0.32
0.423,0.20,0.25,-0.15,0.35
0.433,0.16,0.20,-0.26,0.37
0.443,0.07,0.18,-0.39,0.44
0.453,0.05,0.23,-0.47,0.53
0.463,0.08,0.24,-0.49,0.56
0.473,0.19,0.32,-0.59,0.70
0.483,0.27,0.44,-0.67,0.85
0.493,0.39,0.51,-0.76,1.00
0.503,0.40,0.67,-0.80,1.11
0.513,0.28,0.83,-0.69,1.11
0.523,0.30,0.80,-0.55,1.01
0.533,0.14,0.65,-0.37,0.76
0.544,0.22,0.09,-0.29,0.38
0.554,0.26,-0.16,-0.07,0.31
0.564,0.21,-0.02,0.14,0.25
0.574,0.12,-0.25,0.05,0.28
0.584,0.11,-0.59,-0.05,0.60
0.594,0.18,-0.85,0.09,0.88
0.604,-0.03,-1.09,0.28,1.13
0.614,0.59,-1.28,0.10,1.41
0.624,0.86,-1.68,-0.47,1.94
0.634,0.43,-1.67,-0.81,1.90
0.644,0.40,-1.76,-1.21,2.18
0.654,0.44,-2.00,-1.73,2.68
0.664,0.41,-2.23,-2.13,3.11
0.675,0.48,-2.13,-2.37,3.22
0.685,0.82,-1.51,-2.07,2.69
0.695,1.12,-1.08,-1.68,2.29
0.705,1.38,-0.89,-1.31,2.10
0.715,1.77,-0.72,-1.12,2.21
0.725,2.13,-0.57,-1.01,2.42
0.735,2.35,-0.69,-0.98,2.64
0.745,2.51,-1.19,-1.30,3.07
0.755,2.52,-1.76,-1.73,3.53
0.765,2.54,-1.98,-2.86,4.31
0.775,2.61,-1.56,-4.77,5.65
0.785,2.11,-1.43,-4.58,5.24
0.795,1.86,-1.78,-4.52,5.21
0.806,2.07,-1.85,-4.09,4.94
0.815,2.53,-1.86,-3.52,4.72
0.826,3.21,-2.17,-3.39,5.15
0.836,3.79,-2.33,-3.30,5.54
0.846,4.17,-2.17,-2.99,5.57
0.856,4.24,-2.23,-2.98,5.64
0.866,4.02,-2.52,-3.67,5.99
0.876,3.54,-2.47,-4.70,6.39
0.886,2.53,-2.15,-5.31,6.27
0.896,1.40,-1.97,-4.63,5.22
0.906,1.25,-2.30,-4.05,4.83
0.916,1.82,-2.95,-3.62,5.01
0.926,2.09,-3.09,-2.64,4.56
0.936,1.72,-3.02,-1.88,3.95
0.947,1.11,-3.28,-2.08,4.04
0.956,0.40,-3.47,-2.53,4.31
0.966,-0.20,-3.40,-2.65,4.32
0.976,-0.59,-3.76,-1.45,4.07
0.987,-1.34,-4.44,0.25,4.64
0.997,-2.11,-4.71,1.44,5.36
1.007,-2.72,-4.95,2.58,6.21
1.017,-2.85,-5.21,2.94,6.63
1.027,-2.90,-4.76,3.05,6.35
1.037,-3.43,-4.68,2.92,6.50
1.047,-3.73,-4.90,2.62,6.70
1.057,-3.60,-4.63,2.09,6.22
1.067,-3.35,-4.05,1.55,5.48
1.077,-3.02,-3.49,1.75,4.93
1.087,-2.38,-2.99,2.87,4.77
1.097,-1.43,-2.75,4.79,5.71
1.107,-0.59,-2.55,6.75,7.24
1.118,0.15,-2.25,8.40,8.70
1.128,0.54,-2.06,9.53,9.77
1.138,1.03,-1.91,9.92,10.15
1.148,2.06,-1.42,9.46,9.79
1.158,2.92,0.14,8.55,9.04
1.168,4.19,1.01,6.60,7.88
1.178,6.14,1.32,3.92,7.41
1.188,7.49,2.25,1.68,7.99
1.198,9.42,2.90,1.01,9.91
1.208,11.20,3.46,2.10,11.91
1.218,11.73,3.84,3.55,12.85
1.228,11.88,3.83,3.92,13.08
1.238,12.51,3.88,2.72,13.38
1.248,13.07,4.63,-0.35,13.87
1.259,13.58,5.60,-6.23,15.96
1.274,14.43,7.39,-26.72,31.26
1.278,7.62,6.67,-19.29,21.79
1.289,5.05,3.63,-6.13,8.73
1.299,5.77,2.77,-3.65,7.37
1.309,5.49,2.07,-2.60,6.42
1.319,4.81,0.66,-0.74,4.91
1.329,3.20,0.02,1.44,3.51
1.339,0.34,-0.23,1.86,1.91
1.349,-1.74,-0.16,1.19,2.11
1.359,-3.73,-0.04,0.53,3.77
1.369,-5.18,-0.62,1.33,5.39
1.379,-6.17,-1.44,2.52,6.82
1.389,-5.59,-1.90,2.93,6.59
1.399,-4.37,-1.93,2.35,5.32
1.409,-4.02,-1.85,1.00,4.54
1.420,-3.86,-1.47,-0.45,4.16
1.430,-3.37,-0.79,-1.36,3.72
1.440,-2.40,0.26,-1.71,2.96
1.450,-1.71,1.70,-1.36,2.77
1.460,-3.06,2.34,-0.48,3.88
1.470,-3.58,0.94,0.86,3.80
1.480,-1.93,0.63,2.12,2.93
1.490,-0.26,1.45,1.18,1.89
1.500,2.09,1.60,0.32,2.65
1.510,4.35,1.84,0.75,4.78
1.520,5.80,1.46,1.03,6.07
1.530,6.31,0.96,0.08,6.38
1.540,5.57,0.12,-0.87,5.64
1.550,3.70,-1.41,-0.42,3.98
1.560,1.31,-2.99,0.55,3.31
1.570,-1.07,-4.00,1.51,4.40
1.581,-2.90,-4.72,1.97,5.88
1.591,-3.97,-5.14,1.68,6.71
1.601,-4.49,-4.70,1.08,6.59
1.611,-3.99,-3.79,0.13,5.51
1.621,-3.18,-2.84,-1.12,4.41
1.631,-2.36,-2.13,-1.61,3.56
1.641,-0.96,-1.46,-1.71,2.44
1.651,-0.45,-0.83,-1.39,1.67
1.661,-0.86,-0.55,-1.42,1.75
1.671,-1.37,-0.26,-1.79,2.27
1.681,-1.84,0.25,-1.96,2.70
1.691,-2.21,-0.03,-2.00,2.98
1.701,-1.81,-0.48,-2.20,2.89
1.711,-1.59,0.39,-1.93,2.53
1.722,-1.18,0.82,-1.35,1.97
1.732,-0.11,0.75,-0.72,1.05
1.742,0.81,0.88,-0.08,1.20
1.752,1.33,1.16,2.16,2.79
1.762,1.79,1.09,9.20,9.43
1.772,1.40,0.75,3.00,3.40
1.782,0.84,1.93,3.71,4.27
1.792,0.78,1.39,-1.82,2.42
1.802,2.80,1.93,-3.25,4.70
1.812,3.27,2.22,-2.13,4.49
1.822,3.73,1.11,-0.21,3.90
1.832,2.24,0.04,1.46,2.68
1.842,-0.16,-0.89,1.60,1.84
1.853,-0.64,-1.75,1.09,2.16
1.863,-0.57,-1.80,-0.69,2.01
1.873,-0.56,-1.25,-1.86,2.31
1.883,-0.00,-0.93,-1.52,1.78
1.893,0.13,-0.79,-1.09,1.35
1.903,0.30,-0.66,-0.50,0.88
1.913,-0.56,-0.41,-0.19,0.71
1.923,-0.96,-0.33,-0.24,1.04
1.933,-1.47,-0.01,-0.15,1.48
1.943,-2.00,0.21,0.04,2.02
1.953,-2.42,0.32,0.32,2.46
1.963,-2.86,0.08,0.06,2.86
1.973,-1.54,0.08,-0.09,1.54
1.983,-1.01,0.51,-0.24,1.16
1.993,1.19,0.58,0.05,1.33
2.003,2.10,0.88,0.74,2.40
2.013,2.04,1.25,0.73,2.50
2.024,1.27,1.08,-0.02,1.66
2.034,0.30,0.67,-0.78,1.07
2.044,-0.22,0.34,-1.03,1.10
2.054,0.13,0.38,-0.68,0.79
2.064,-0.12,0.46,-0.37,0.60
2.074,-0.43,0.41,-0.21,0.63
2.084,-0.08,0.33,-0.04,0.34
2.094,0.08,0.53,0.10,0.54
2.104,-0.02,0.56,0.03,0.56
2.114,0.43,0.34,0.35,0.65
2.124,0.32,0.16,0.31,0.48
2.134,1.14,-0.29,0.21,1.20
2.144,1.58,-0.55,0.18,1.68
2.154,1.00,-0.92,-0.03,1.36
2.165,0.39,-1.48,-0.16,1.54
2.175,-0.59,-1.63,-0.52,1.81
2.185,-1.18,-1.60,-0.90,2.18
2.195,-1.06,-1.46,-1.10,2.12
2.205,-1.30,-1.09,-1.19,2.08
2.215,-1.36,-0.94,-0.97,1.92
2.225,-1.17,-0.92,-0.48,1.56
2.235,-0.93,-0.70,0.06,1.16
2.245,-0.72,-0.45,0.43,0.95
2.255,-0.68,-0.15,0.57,0.90
2.265,-1.39,-0.03,0.19,1.40
2.275,-1.66,-0.14,-0.07,1.66
2.285,-1.80,0.03,-0.17,1.80
2.295,-1.48,0.16,-0.21,1.50
2.306,-1.56,0.26,-0.36,1.62
2.316,-1.09,0.50,0.13,1.21
2.326,-0.54,0.67,1.02,1.33
2.336,1.00,0.62,0.97,1.53
2.346,1.86,0.99,0.88,2.29
2.356,1.80,1.56,0.58,2.46
2.366,0.76,1.82,-0.14,1.97
2.376,0.27,1.57,-0.24,1.61
2.386,0.22,1.43,-0.16,1.45
2.396,-0.29,1.51,-0.31,1.57
2.406,-0.57,1.57,-0.53,1.75
2.416,0.03,1.49,-0.46,1.56
2.426,0.35,1.73,-0.19,1.78
2.436,-0.32,1.97,-0.19,2.01
2.446,-1.09,1.75,-0.31,2.08
2.457,-1.28,1.45,-0.71,2.06
2.467,-0.33,1.21,-0.80,1.49
2.477,2.31,0.94,-0.56,2.56
2.487,4.95,1.31,-0.43,5.14
2.497,5.41,2.10,-0.17,5.80
2.507,3.84,2.64,-0.46,4.69
2.517,2.25,1.28,-0.06,2.59
2.527,0.97,-0.16,0.51,1.11
2.537,0.32,-0.36,0.64,0.80
2.547,0.65,-0.35,0.33,0.81
2.557,1.23,0.06,0.47,1.31
2.567,2.76,1.52,0.57,3.20
2.577,2.43,1.79,0.71,3.10
2.587,-2.35,4.02,-0.20,4.66
2.598,-3.66,1.71,-1.35,4.26
2.608,-4.86,2.30,-0.93,5.46
2.618,-6.79,4.09,-0.53,7.94
2.628,-8.00,2.24,-2.91,8.80
2.638,-8.42,0.68,-3.47,9.13
2.648,-8.28,-0.73,-3.26,8.93
2.658,-7.82,-1.89,-2.71,8.49
2.668,-5.80,-4.41,-1.66,7.47
2.678,-1.75,-6.44,-0.06,6.67
2.688,1.68,-6.80,1.47,7.16
2.698,2.98,-7.11,0.63,7.74
2.708,3.27,-6.70,-0.84,7.50
2.718,2.69,-4.26,-0.37,5.05
2.728,1.02,-0.45,1.87,2.18
2.738,-0.17,1.34,3.22,3.49
2.748,-0.81,1.37,2.29,2.79
2.758,-0.65,0.59,0.19,0.90
2.769,0.17,0.04,-1.20,1.21
2.779,0.14,-0.12,-1.08,1.10
2.789,-0.84,-0.21,-0.79,1.17
2.799,-1.99,-0.39,-1.58,2.57
2.809,-1.56,-1.26,-1.64,2.59
2.819,-0.55,-0.70,-0.30,0.94
2.829,-0.59,0.98,0.81,1.40
2.839,-0.90,1.57,1.34,2.25
2.849,-0.89,1.59,0.88,2.02
2.859,-0.79,1.11,-0.20,1.38
2.869,-0.78,1.20,-0.52,1.52
2.879,-0.93,1.75,-0.46,2.03
2.889,-1.28,2.29,-0.26,2.64
2.899,-1.70,2.73,-0.02,3.22
2.910,-2.03,3.37,0.20,3.94
2.920,-2.24,8.56,1.28,8.95
2.930,-1.98,11.21,2.28,11.61
2.940,-1.69,7.55,1.73,7.92
2.950,-0.82,3.64,1.40,3.98
2.960,0.47,1.08,1.94,2.27
2.970,1.91,-0.86,2.86,3.54
2.980,3.33,-3.60,3.17,5.85
2.990,4.49,-6.81,2.28,8.48
3.000,4.37,-8.67,1.06,9.77
3.010,3.43,-8.86,-0.75,9.53
3.020,2.72,-8.24,-3.22,9.25
3.030,2.33,-6.39,-5.55,8.78
3.040,2.89,-3.16,-6.47,7.76
3.051,3.30,-0.97,-5.26,6.29
3.061,2.48,-0.75,-3.08,4.02
3.071,1.05,-1.34,-0.94,1.94
3.081,0.76,-2.22,0.70,2.45
3.091,0.66,-2.72,1.81,3.33
3.101,0.72,-2.82,1.79,3.42
3.111,0.68,-2.72,1.06,3.00
3.121,0.16,-2.25,0.08,2.25
3.131,-0.20,-1.37,-0.79,1.60
3.141,-0.29,-0.56,-1.37,1.51
3.151,-0.19,-0.13,-1.58,1.60
3.161,0.03,0.25,-1.16,1.18
3.171,0.04,0.66,-0.40,0.78
3.181,-0.41,1.12,0.10,1.20
3.191,-1.18,2.00,0.30,2.35
3.202,-2.24,2.58,-0.13,3.42
3.212,-2.49,2.87,-0.48,3.83
3.222,-1.96,2.47,-0.67,3.22
3.232,-1.08,1.74,-0.76,2.18
3.242,-0.38,1.43,-0.98,1.77
3.252,-0.11,0.72,-1.07,1.30
3.262,-0.22,-0.43,-0.58,0.75
3.272,-0.55,-1.81,-0.25,1.91
3.282,-0.74,-2.42,-0.10,2.53
3.292,-0.57,-2.73,0.25,2.80
3.302,-0.45,-2.47,0.27,2.53
3.312,-0.56,-1.27,-0.08,1.39
3.322,-0.76,0.09,-0.48,0.91
3.332,-0.83,0.75,-1.04,1.53
3.343,-0.92,1.38,-1.63,2.33
3.352,-1.08,2.06,-2.00,3.07
3.363,-1.08,1.79,-2.36,3.16
3.373,-1.61,-1.39,-3.79,4.35
3.383,-2.13,-3.13,-4.58,5.94
3.393,-1.92,-3.78,-4.31,6.04
3.403,-1.02,-2.83,-2.68,4.03
3.413,0.18,-1.25,-1.10,1.67
3.423,0.89,-0.39,-0.30,1.02
3.433,1.10,-0.14,0.01,1.10
3.443,1.57,0.31,0.21,1.61
3.453,2.09,1.15,0.30,2.40
3.463,2.21,1.69,0.51,2.83
3.473,1.93,1.40,0.78,2.51
3.483,1.55,0.85,1.05,2.05
3.493,1.24,0.57,1.43,1.98
3.504,1.03,0.45,1.65,1.99
3.514,1.05,0.24,1.84,2.13
3.524,1.10,0.33,2.11,2.40
3.534,1.04,0.60,2.09,2.42
3.544,1.03,0.69,1.86,2.24
3.554,1.03,0.43,1.56,1.92
3.564,1.16,0.01,1.37,1.80
3.574,1.33,-0.29,1.26,1.86
3.584,1.23,-0.52,1.10,1.73
3.594,1.02,-0.60,0.96,1.52
3.604,0.61,-0.55,0.78,1.13
3.614,0.02,-0.73,0.40,0.83
3.624,-0.59,-1.16,-0.26,1.33
3.634,-1.06,-1.27,-0.85,1.86
3.645,-1.16,-0.94,-1.21,1.92
3.655,-1.16,-0.43,-1.22,1.74
3.665,-1.09,0.04,-1.08,1.53
3.675,-1.00,0.31,-1.08,1.50
3.685,-1.07,0.48,-1.10,1.60
3.695,-1.21,0.72,-1.01,1.73
3.705,-1.33,0.66,-1.19,1.90
3.715,-1.31,0.15,-1.87,2.29
3.725,-0.93,-0.21,-2.60,2.77
3.735,-0.17,0.32,-2.81,2.83
3.745,0.52,0.78,-2.59,2.75
3.755,0.91,0.62,-2.51,2.74
3.765,1.11,0.50,-2.32,2.62
3.775,1.20,0.30,-2.10,2.44
3.786,1.36,0.00,-1.92,2.35
3.795,1.58,-0.10,-1.80,2.39
3.806,1.79,0.03,-1.67,2.45
3.816,1.79,0.19,-1.61,2.41
3.826,1.69,0.40,-1.57,2.34
3.836,1.39,0.68,-1.36,2.06
3.846,1.01,0.98,-1.08,1.77
3.856,0.71,1.15,-0.96,1.66
3.866,0.51,1.10,-1.11,1.64
3.876,0.34,1.09,-1.29,1.72
3.886,0.31,1.11,-1.39,1.81
3.896,0.40,1.20,-1.56,2.01
3.906,0.66,1.35,-1.47,2.10
3.916,1.16,1.43,-1.15,2.18
3.926,1.81,1.47,-0.54,2.40
3.936,1.98,0.99,-0.08,2.22
3.946,1.71,0.31,-0.18,1.75
3.957,1.02,-0.36,-0.47,1.18
3.967,0.11,-1.13,-0.88,1.43
3.977,-0.44,-2.04,-1.01,2.31
3.987,-0.44,-1.96,-0.78,2.16
3.997,0.04,-0.92,-0.58,1.09
4.007,0.39,0.14,-0.49,0.64
4.017,0.49,0.63,-0.73,1.08
4.027,0.41,0.60,-1.07,1.29
4.037,0.30,0.45,-1.00,1.14
4.047,0.10,0.13,-0.65,0.67
4.057,-0.21,-0.31,-0.75,0.84
4.067,-0.36,-1.03,-1.24,1.65
4.077,-0.26,-1.72,-1.79,2.50
4.087,-0.15,-2.15,-2.18,3.06
4.097,-0.01,-2.31,-2.28,3.25
4.108,0.13,-2.18,-2.20,3.10
4.117,0.27,-1.93,-2.11,2.87
4.128,0.46,-1.70,-2.11,2.75
4.138,0.66,-1.55,-2.18,2.76
4.148,0.84,-1.47,-2.38,2.92
4.158,1.01,-1.65,-2.76,3.37
4.168,1.32,-2.04,-3.10,3.94
4.178,1.70,-2.45,-3.26,4.42
4.188,2.20,-3.08,-3.43,5.11
4.198,2.73,-3.70,-3.51,5.79
4.208,3.21,-3.21,-3.64,5.82
4.218,4.07,-2.17,-2.92,5.46
4.229,4.43,-2.28,-2.78,5.71
4.238,4.09,-1.52,-3.88,5.84
4.249,3.15,-0.76,-5.10,6.04
4.259,1.70,-0.26,-6.57,6.80
4.269,-0.63,0.50,-7.32,7.36
4.279,-2.23,0.84,-6.93,7.33
4.289,-2.88,0.79,-5.26,6.05
4.299,-2.86,0.43,-3.44,4.49
4.309,-2.41,0.02,-1.37,2.78
4.319,-1.84,-0.59,0.36,1.97
4.329,-1.08,-1.28,1.60,2.32
4.339,-0.41,-1.68,2.56,3.09
4.349,0.27,-1.80,2.92,3.44
4.359,0.70,-1.93,2.88,3.54
4.369,0.60,-1.95,2.74,3.42
4.379,0.38,-1.71,2.80,3.31
4.390,0.36,-1.38,3.05,3.37
4.400,0.39,-1.19,3.25,3.49
4.410,0.29,-1.08,3.42,3.60
4.420,0.07,-1.01,3.15,3.31
4.430,-0.10,-0.86,2.20,2.37
4.440,-0.19,-0.65,0.72,0.99
4.450,0.04,-0.46,-0.91,1.02
4.460,0.72,-0.30,-1.79,1.95
4.470,1.06,-0.08,-1.40,1.76
4.480,0.79,0.22,-0.24,0.86
4.490,0.33,0.42,0.91,1.06
4.500,0.06,0.72,2.00,2.13
4.510,-0.16,0.94,2.34,2.53
4.520,-0.25,1.14,2.28,2.56
4.530,-0.46,1.27,2.42,2.77
4.541,-0.75,1.33,2.85,3.23
4.551,-0.89,1.35,3.03,3.44
4.561,-1.11,1.50,2.82,3.38
4.571,-1.23,1.65,2.52,3.25
4.581,-1.23,1.79,2.25,3.13
4.591,-1.12,1.94,2.18,3.13
4.601,-0.93,2.07,2.27,3.21
4.611,-0.81,2.18,2.38,3.33
4.621,-0.70,2.35,2.43,3.45
4.631,-0.57,2.51,2.40,3.52
4.641,-0.37,2.60,2.32,3.51
4.651,-0.10,2.60,2.22,3.42
4.661,0.23,2.58,2.17,3.38
4.672,0.62,2.48,2.16,3.34
4.682,0.94,2.36,2.16,3.33
4.692,1.21,2.17,2.23,3.34
4.702,1.33,2.01,2.34,3.36
4.712,1.33,1.83,2.38,3.29
4.722,1.30,1.64,2.29,3.10
4.732,1.26,1.43,1.93,2.71
4.742,1.25,1.17,1.33,2.17
4.752,1.30,0.81,0.49,1.61
4.762,1.46,0.36,-0.66,1.64
4.772,1.67,-0.24,-2.35,2.89
4.782,1.73,-1.09,-4.53,4.97
4.792,1.56,-2.32,-6.98,7.52
4.802,1.23,-3.88,-9.29,10.15
4.812,0.76,-5.25,-11.11,12.32
4.822,-0.07,-5.84,-11.59,12.98
4.832,-1.51,-5.05,-9.33,10.72
4.843,-3.12,-3.35,-5.53,7.18
4.853,-4.10,-1.69,-2.62,5.15
4.863,-4.25,-0.02,-1.09,4.38
4.873,-3.71,1.61,-0.45,4.07
4.883,-3.17,3.19,-0.07,4.50
4.893,-2.70,4.76,0.45,5.49
4.903,-2.35,5.84,1.45,6.46
4.913,-2.24,5.98,2.57,6.88
4.923,-2.47,4.77,3.54,6.43
4.933,-3.13,2.09,4.63,5.97
4.943,-3.90,-0.94,5.80,7.05
4.953,-4.87,-4.15,6.11,8.85
4.964,-4.50,-7.66,2.37,9.19
4.974,-2.42,-11.80,-8.76,14.89
4.984,-0.66,-10.66,-7.72,13.18
4.994,0.93,-4.52,-1.15,4.76
5.004,1.32,0.51,3.02,3.33
5.014,1.03,3.29,4.94,6.02
5.024,0.71,4.56,5.01,6.81
5.034,0.54,5.14,4.28,6.71
5.044,0.74,5.20,3.75,6.45
5.054,0.71,4.25,3.42,5.50
5.064,0.32,2.42,3.30,4.10
5.074,-0.23,0.20,3.47,3.48
5.084,-0.78,-1.89,3.86,4.37
5.094,-0.85,-3.36,4.29,5.52
5.104,-0.28,-3.75,4.48,5.85
5.114,0.41,-3.44,4.00,5.29
5.124,0.86,-2.47,3.36,4.26
5.135,1.15,-1.42,2.94,3.46
5.145,1.44,-0.41,2.64,3.04
5.155,1.73,0.45,2.45,3.03
5.165,1.79,1.14,2.15,3.02
5.175,1.92,1.62,1.79,3.08
5.185,1.94,2.04,1.51,3.20
5.195,1.94,2.22,1.17,3.17
5.205,1.96,1.69,0.52,2.64
5.215,1.84,0.84,-0.20,2.03
5.225,1.49,0.14,-0.85,1.73
5.235,1.18,-0.33,-1.47,1.91
5.245,0.93,-0.41,-2.18,2.40
5.255,0.77,-0.20,-2.99,3.09
5.265,0.58,-0.00,-3.60,3.64
5.276,0.46,-0.00,-3.64,3.67
5.285,0.54,0.12,-3.20,3.25
5.296,0.57,0.19,-2.60,2.67
5.306,0.43,0.09,-2.11,2.16
5.316,0.16,-0.06,-1.91,1.92
5.326,0.19,-0.12,-1.75,1.76
5.336,0.23,0.03,-1.64,1.66
5.346,0.32,0.29,-1.55,1.61
5.356,0.33,0.58,-1.46,1.61
5.366,0.24,0.74,-1.40,1.60
5.376,0.10,0.70,-1.31,1.49
5.386,-0.06,0.41,-1.20,1.28
5.396,-0.19,-0.13,-1.06,1.08
5.406,-0.22,-0.67,-0.97,1.20
5.416,-0.30,-1.14,-0.95,1.51
5.427,-0.36,-1.50,-0.98,1.83
5.437,-0.31,-1.71,-1.20,2.11
5.447,-0.14,-1.76,-1.45,2.28
5.457,0.07,-1.69,-1.68,2.39
5.467,0.24,-1.59,-1.98,2.55
5.477,0.21,-1.44,-2.28,2.71
5.487,-0.05,-1.29,-2.56,2.87
5.497,-0.34,-1.27,-2.84,3.13
5.507,-0.35,-1.39,-3.05,3.37
5.517,-0.06,-1.74,-3.14,3.59
5.527,0.37,-2.19,-3.55,4.19
5.537,0.45,-2.47,-5.04,5.63
5.547,-0.06,-2.84,-8.36,8.83
5.557,-1.07,-3.16,-12.33,12.78
5.567,-1.87,-4.24,-12.98,13.78
5.578,-1.53,-6.03,-9.99,11.77
5.588,-0.39,-6.78,-6.57,9.45
5.598,0.55,-6.21,-4.22,7.53
5.608,1.09,-4.65,-2.94,5.61
5.618,1.69,-2.72,-1.31,3.46
5.628,2.11,-1.63,0.79,2.79
5.638,2.93,-1.22,1.39,3.47
5.648,3.13,-0.41,1.35,3.43
5.658,2.40,-0.10,1.81,3.01
5.668,1.32,-0.42,2.70,3.03
5.678,0.02,-1.06,3.62,3.77
5.688,-0.88,-1.72,4.12,4.55
5.698,-1.43,-2.44,4.80,5.57
5.708,-1.78,-3.17,5.65,6.72
5.719,-2.14,-3.80,5.85,7.30
5.729,-2.41,-4.11,5.17,7.03
5.739,-2.37,-3.66,4.12,6.00
5.749,-2.57,-2.97,1.84,4.34
5.759,-2.30,-1.97,-0.53,3.07
5.769,-1.38,-0.15,-0.28,1.41
5.779,-0.77,1.17,0.88,1.65
5.789,-0.50,2.20,1.70,2.83
5.799,-0.56,2.78,1.22,3.08
5.810,-0.42,2.88,0.43,2.94
5.819,0.25,2.70,0.42,2.74
5.829,0.56,2.65,1.32,3.01
5.839,0.59,2.60,2.35,3.55
5.849,0.57,2.45,3.24,4.10
5.860,0.51,2.31,4.01,4.65
5.870,0.33,2.21,4.82,5.31
5.880,0.28,2.26,5.48,5.93
5.890,0.28,2.38,5.79,6.27
5.900,0.09,2.50,5.48,6.02
5.910,-0.17,2.62,4.74,5.42
5.920,-0.37,2.69,3.98,4.82
5.930,-0.62,2.72,3.52,4.49
5.940,-0.74,2.76,3.57,4.58
5.950,-0.63,2.82,3.90,4.85
5.960,-0.31,2.88,4.27,5.16
5.970,-0.03,2.77,4.52,5.30
5.980,0.16,2.57,4.60,5.27
5.990,0.37,2.36,4.56,5.15
6.000,0.74,2.30,4.42,5.04
6.010,1.13,2.28,4.12,4.84
6.021,1.48,2.24,3.61,4.50
6.031,1.82,2.08,2.89,3.99
6.041,2.08,1.63,1.86,3.24
6.051,2.47,0.78,0.16,2.59
6.061,2.98,-0.64,-2.93,4.22
6.071,3.84,-3.11,-10.19,11.32
6.081,4.22,-7.50,-21.86,23.49
6.091,2.31,-11.65,-25.47,28.11
6.101,0.20,-13.13,-19.48,23.49
6.111,-2.67,-11.19,-10.23,15.40
6.121,-5.15,-6.45,-3.35,8.91
6.131,-5.12,-2.39,-0.88,5.71
6.141,-3.92,0.53,-0.12,3.95
6.151,-2.57,3.04,0.39,4.00
6.162,-2.17,5.36,1.00,5.87
6.172,-2.41,6.58,1.93,7.27
6.182,-3.82,5.71,4.41,8.16
6.192,-6.07,2.50,7.67,10.10
6.202,-8.63,-0.88,8.69,12.28
6.212,-10.04,-2.89,8.06,13.20
6.222,-10.42,-4.01,3.18,11.61
6.232,-7.06,-4.24,-6.02,10.20
6.242,-1.52,-0.07,0.13,1.53
6.252,0.36,2.67,5.14,5.80
6.262,1.68,3.82,6.06,7.36
6.272,1.34,3.74,4.94,6.34
6.282,0.49,2.85,4.00,4.93
6.292,0.42,1.55,3.86,4.18
6.302,0.28,-0.35,4.03,4.05
6.312,-0.01,-2.39,4.32,4.94
6.323,-0.12,-4.02,4.57,6.09
6.332,0.35,-4.68,4.44,6.46
6.343,1.27,-4.39,4.21,6.22
6.353,2.03,-3.71,3.91,5.76
6.363,2.45,-2.78,3.52,5.11
6.373,2.83,-1.62,3.20,4.57
6.383,3.16,-0.59,2.93,4.35
6.393,3.35,0.29,2.58,4.24
6.403,3.32,0.85,2.22,4.08
6.413,3.25,1.29,1.90,3.98
6.423,3.44,1.66,1.53,4.12
6.433,3.68,2.04,1.09,4.35
6.443,3.81,2.49,0.97,4.65
6.453,3.82,2.71,0.74,4.74
6.464,3.63,2.22,0.19,4.26
6.474,3.11,1.21,-0.40,3.36
6.484,2.41,0.09,-0.87,2.56
6.494,1.74,-0.76,-1.23,2.26
6.504,1.35,-1.04,-1.58,2.32
6.514,1.32,-0.76,-1.98,2.50
6.524,1.30,-0.25,-2.44,2.77
6.534,0.99,0.46,-2.94,3.13
6.544,0.52,0.95,-3.37,3.54
6.554,0.19,1.00,-3.56,3.71
6.564,-0.09,0.68,-3.52,3.58
6.574,-0.22,0.18,-3.37,3.39
6.584,-0.21,-0.29,-3.20,3.22
6.594,-0.09,-0.57,-3.03,3.08
6.605,0.03,-0.63,-2.84,2.91
6.614,0.03,-0.72,-2.66,2.76
6.625,-0.11,-0.98,-2.40,2.60
6.635,-0.36,-1.37,-2.17,2.59
6.645,-0.63,-1.85,-1.91,2.73
6.655,-0.86,-2.24,-1.71,2.94
6.665,-0.87,-2.36,-1.65,3.01
6.675,-0.60,-2.27,-1.85,2.99
6.685,-0.27,-2.10,-2.12,2.99
6.695,-0.04,-1.77,-2.44,3.01
6.705,-0.08,-1.34,-2.81,3.11
6.715,-0.27,-1.03,-3.25,3.42
6.725,-0.42,-1.18,-4.14,4.33
6.735,-0.57,-2.13,-5.54,5.96
6.745,-0.52,-3.21,-7.22,7.91
6.755,-0.40,-4.23,-8.94,9.90
6.765,-0.21,-5.46,-9.62,11.07
6.776,0.49,-6.43,-8.62,10.76
6.786,1.19,-6.47,-7.09,9.67
6.796,1.45,-5.33,-5.78,8.00
6.806,1.75,-3.64,-4.35,5.94
6.816,1.65,-2.44,-2.65,3.96
6.826,1.72,-1.63,-0.95,2.55
6.836,2.36,-0.68,1.47,2.86
6.846,2.14,-0.15,2.37,3.20
6.856,2.00,-0.23,2.02,2.85
6.866,1.38,-0.37,2.15,2.58
6.876,0.20,-1.13,2.86,3.08
6.886,-0.92,-2.24,4.26,4.90
6.896,-1.49,-3.29,5.90,6.92
6.907,-1.87,-4.21,6.91,8.30
6.916,-2.23,-4.99,6.46,8.46
6.927,-2.80,-5.35,5.53,8.19
6.937,-3.28,-4.88,4.37,7.32
6.947,-3.67,-3.90,1.20,5.49
6.957,-3.27,-2.16,-0.80,4.00
6.967,-2.32,-0.14,-0.17,2.33
6.977,-1.74,1.40,1.19,2.53
6.987,-1.49,2.46,2.12,3.57
6.997,-1.33,3.05,1.83,3.80
7.007,-0.78,3.31,0.71,3.47
7.017,-0.05,3.35,0.61,3.40
7.027,0.43,3.14,1.75,3.62
7.037,0.65,2.99,3.25,4.47
7.047,0.99,2.78,4.38,5.28
7.058,0.92,2.71,5.18,5.92
7.068,0.74,2.53,5.81,6.38
7.078,0.55,2.36,6.22,6.67
7.088,0.45,2.54,6.28,6.78
7.098,0.27,2.71,6.20,6.77
7.108,0.02,2.86,5.76,6.43
7.118,-0.14,3.03,5.08,5.91
7.128,-0.23,3.06,4.62,5.54
7.138,-0.28,3.08,4.40,5.38
7.148,-0.11,3.04,4.53,5.45
7.158,0.23,2.98,4.88,5.72
7.168,0.56,2.82,5.18,5.92
7.178,0.89,2.58,5.29,5.95
7.188,1.27,2.37,5.16,5.81
7.198,1.69,2.24,4.80,5.56
7.209,2.11,2.17,4.23,5.20
7.219,2.40,1.95,3.39,4.59
7.229,2.52,1.40,2.17,3.61
7.239,2.62,0.33,0.19,2.65
7.249,3.13,-1.34,-3.80,5.10
7.259,4.38,-4.64,-14.84,16.15
7.269,3.09,-10.82,-30.53,32.54
7.279,0.08,-15.13,-30.29,33.86
7.289,-2.02,-14.12,-14.88,20.61
7.299,-4.14,-9.98,-3.22,11.27
7.309,-4.34,-4.98,0.98,6.68
7.319,-3.53,-1.32,1.29,3.98
7.329,-2.50,1.32,0.71,2.91
7.339,-1.62,3.52,0.32,3.89
7.349,-1.43,5.53,0.62,5.75
7.360,-2.10,6.53,2.39,7.26
7.370,-4.26,5.13,5.83,8.86
7.380,-7.32,2.45,8.78,11.69
7.390,-9.76,-0.11,9.48,13.61
7.400,-10.75,-1.28,8.46,13.74
7.410,-10.26,-1.18,1.90,10.50
7.420,-6.84,-0.62,-6.99,9.80
7.430,-1.23,1.92,-0.45,2.32
7.440,0.59,3.12,4.59,5.58
7.450,1.54,3.67,5.85,7.07
7.461,1.56,3.71,5.04,6.45
7.470,1.31,2.88,4.14,5.21
7.480,1.07,1.41,3.91,4.29
7.490,1.06,-0.73,4.01,4.21
7.501,1.00,-3.13,4.15,5.29
7.511,0.88,-4.98,4.15,6.55
7.521,0.88,-6.04,4.14,7.37
7.531,1.33,-6.04,3.86,7.29
7.541,1.86,-5.21,3.34,6.47
7.551,2.33,-3.98,3.01,5.51
7.561,2.76,-2.47,2.82,4.66
7.571,3.19,-0.95,2.55,4.19
7.581,3.43,0.18,2.31,4.14
7.591,3.55,0.98,1.96,4.17
7.601,3.65,1.75,1.96,4.50
7.611,3.95,2.44,1.93,5.03
7.621,4.31,2.58,1.39,5.22
7.631,4.52,2.17,0.60,5.05
7.641,4.61,1.58,-0.18,4.88
7.652,4.46,0.90,-0.84,4.63
7.662,4.03,0.25,-1.32,4.25
7.672,3.40,-0.25,-1.60,3.76
7.682,2.73,-0.54,-1.85,3.34
7.692,2.31,-0.49,-2.18,3.21
7.702,2.10,-0.16,-2.86,3.55
7.712,1.78,-0.00,-3.52,3.95
7.722,1.44,-0.15,-3.66,3.94
7.732,1.21,-0.34,-3.36,3.58
7.742,0.99,-0.34,-2.89,3.08
7.752,0.71,-0.21,-2.54,2.65
7.762,0.50,-0.08,-2.34,2.39
7.772,0.34,0.02,-2.19,2.21
7.782,0.14,0.03,-2.10,2.11
7.793,-0.14,-0.07,-2.09,2.10
7.803,-0.53,-0.32,-2.06,2.15
7.813,-0.94,-0.62,-2.01,2.30
7.823,-1.15,-0.88,-2.03,2.49
7.833,-1.25,-1.14,-2.01,2.63
7.843,-1.26,-1.43,-2.03,2.78
7.853,-1.24,-1.53,-2.04,2.84
7.863,-1.41,-1.46,-2.06,2.89
7.873,-1.65,-1.26,-2.14,2.98
7.883,-2.04,-1.27,-2.31,3.33
7.893,-2.23,-1.58,-2.87,3.97
7.903,-2.18,-1.95,-4.29,5.20
7.913,-1.97,-2.38,-7.40,8.01
7.923,-1.75,-2.64,-12.08,12.49
7.933,-1.65,-2.98,-14.60,14.99
7.944,-1.40,-4.07,-11.97,12.71
7.954,-0.94,-5.97,-7.49,9.63
7.964,-0.50,-7.17,-4.23,8.34
7.974,0.26,-7.15,-2.45,7.56
7.984,1.38,-5.89,-1.53,6.24
7.994,2.13,-4.12,-0.87,4.71
8.004,2.97,-3.06,0.43,4.28
8.014,3.40,-2.52,1.83,4.61
8.024,3.56,-2.33,1.88,4.65
8.034,3.34,-2.13,2.20,4.53
8.044,1.97,-2.06,2.93,4.09
8.054,0.56,-2.42,3.59,4.36
8.064,-0.30,-2.80,4.67,5.45
8.075,-0.80,-3.04,5.57,6.40
8.084,-1.14,-3.36,5.80,6.80
8.095,-1.63,-3.73,5.71,7.01
8.105,-2.20,-3.96,5.39,7.04
8.115,-2.95,-4.12,3.36,6.08
8.125,-2.87,-3.14,1.53,4.53
8.135,-1.82,-1.27,0.60,2.29
8.145,-0.99,0.37,0.04,1.06
8.155,-0.65,1.62,0.14,1.75
8.165,-0.82,2.50,0.32,2.65
8.175,-1.12,2.88,1.18,3.31
8.185,-0.43,3.53,2.25,4.20
8.195,0.42,3.66,2.33,4.36
8.205,0.40,3.43,3.54,4.95
8.215,0.72,3.55,4.65,5.90
8.225,0.64,3.38,4.92,6.00
8.236,0.64,3.06,4.93,5.84
8.245,0.33,2.74,5.54,6.19
8.256,0.06,2.57,5.65,6.21
8.266,0.02,2.42,5.60,6.10
8.276,-0.00,2.42,5.55,6.06
8.286,-0.08,2.51,5.31,5.88
8.296,-0.25,2.66,5.04,5.71
8.306,-0.50,2.81,4.85,5.62
8.316,-0.57,2.94,4.85,5.70
8.326,-0.54,3.07,4.92,5.82
8.336,-0.45,3.05,4.97,5.85
8.346,-0.35,2.86,5.04,5.81
8.356,-0.07,2.67,4.97,5.64
8.366,0.46,2.57,4.71,5.38
8.376,1.00,2.52,4.22,5.02
8.386,1.46,2.36,3.54,4.50
8.397,1.85,1.92,2.69,3.79
8.407,2.26,1.11,1.45,2.90
8.417,2.77,-0.12,-0.90,2.91
8.427,3.57,-2.06,-5.96,7.25
8.437,3.98,-6.00,-17.84,19.24
8.447,2.72,-11.48,-29.05,31.36
8.457,1.14,-14.17,-25.22,28.95
8.467,-0.69,-12.72,-13.09,18.27
8.477,-2.73,-8.38,-3.83,9.61
8.487,-3.65,-3.98,-0.32,5.41
8.497,-3.30,-1.03,0.23,3.47
8.507,-2.23,1.56,0.06,2.72
8.518,-1.54,4.24,0.46,4.53
8.527,-1.63,6.69,1.30,7.01
8.538,-1.91,7.70,3.29,8.59
8.547,-3.54,6.23,6.28,9.53
8.558,-6.31,2.89,8.59,11.04
8.568,-9.12,-0.76,9.23,12.99
8.578,-10.87,-3.09,8.85,14.36
8.588,-11.03,-3.71,6.75,13.45
8.598,-9.79,-4.30,-6.52,12.53
8.608,-3.88,-2.21,-3.78,5.85
8.618,-0.82,0.55,4.93,5.03
8.628,0.40,2.15,5.90,6.29
8.638,0.83,3.02,4.73,5.67
8.648,0.84,2.88,3.75,4.80
8.658,0.89,1.98,3.23,3.89
8.668,1.27,0.46,3.34,3.60
8.678,1.74,-1.54,3.81,4.46
8.688,1.91,-3.26,4.30,5.72
8.699,1.98,-4.20,4.62,6.55
8.709,2.20,-4.36,4.09,6.37
8.719,2.43,-3.80,3.40,5.65
8.729,2.66,-2.95,2.95,4.95
8.739,3.00,-1.89,2.63,4.42
8.749,3.44,-0.95,2.36,4.28
8.759,3.73,-0.10,1.98,4.22
8.769,3.81,0.59,1.51,4.15
8.779,3.91,1.22,1.09,4.24
8.789,4.12,1.80,0.77,4.57
8.799,4.25,2.22,0.54,4.83
8.809,4.29,2.22,0.07,4.83
8.819,4.15,1.82,-0.55,4.56
8.829,3.76,1.21,-1.07,4.09
8.840,3.11,0.65,-1.42,3.48
8.850,2.32,0.11,-1.65,2.85
8.860,1.66,-0.23,-1.84,2.49
8.870,1.30,-0.25,-2.01,2.41
8.880,1.20,0.00,-2.16,2.47
8.890,1.10,0.34,-2.28,2.56
8.900,0.90,0.58,-2.33,2.57
8.910,0.68,0.56,-2.12,2.29
8.920,0.51,0.31,-1.86,1.96
8.930,0.37,-0.07,-1.74,1.78
8.940,0.22,-0.11,-1.78,1.80
8.950,-0.04,0.02,-1.80,1.81
8.960,-0.37,0.07,-1.71,1.76
8.970,-0.76,-0.03,-1.66,1.83
8.980,-1.15,-0.26,-1.65,2.03
8.991,-1.46,-0.67,-1.73,2.36
9.001,-1.64,-1.28,-1.90,2.82
9.011,-1.88,-1.89,-2.18,3.44
9.021,-1.97,-2.35,-2.44,3.92
9.031,-1.75,-2.36,-2.79,4.05
9.041,-1.55,-1.83,-3.46,4.22
9.051,-1.56,-0.91,-4.78,5.11
9.061,-1.74,-0.32,-6.50,6.74
9.071,-1.51,-1.03,-7.08,7.31
9.081,-0.75,-2.53,-6.13,6.67
9.091,0.05,-3.57,-5.18,6.29
9.101,0.81,-4.13,-4.95,6.50
9.111,1.88,-4.16,-5.10,6.85
9.122,2.14,-4.05,-6.65,8.07
9.132,1.08,-4.84,-8.97,10.25
9.142,-0.26,-6.42,-9.80,11.72
9.152,-0.87,-6.60,-8.83,11.05
9.162,-0.32,-4.37,-6.41,7.76
9.172,0.63,-2.69,-3.45,4.41
9.182,1.62,-1.90,-1.11,2.73
9.192,2.56,-1.20,1.37,3.14
9.202,3.07,-1.25,2.37,4.07
9.212,3.13,-1.09,2.46,4.13
9.222,2.36,-1.15,2.73,3.78
9.232,0.81,-1.72,3.17,3.69
9.242,-0.48,-2.57,3.75,4.57
9.252,-1.40,-3.46,4.59,5.91
9.262,-2.16,-4.33,5.93,7.65
9.272,-2.57,-5.01,6.68,8.74
9.282,-3.05,-5.56,6.55,9.12
9.293,-3.30,-5.67,5.94,8.85
9.303,-3.82,-5.24,4.23,7.75
9.313,-3.53,-3.69,2.16,5.55
9.323,-2.16,-1.41,1.27,2.88
9.333,-1.33,0.35,1.01,1.71
9.343,-1.23,1.61,0.59,2.11
9.353,-1.31,2.54,-0.28,2.87
9.363,-1.39,3.07,-1.30,3.61
9.373,-1.16,3.27,-0.54,3.52
9.383,-0.51,3.22,1.55,3.61
9.393,0.10,3.21,3.51,4.76
9.403,0.60,3.29,4.59,5.68
9.413,1.10,3.36,5.11,6.21
9.423,1.28,3.32,5.58,6.61
9.433,1.01,3.18,5.91,6.79
9.444,0.75,3.09,6.24,7.01
9.454,0.54,3.12,6.36,7.10
9.464,0.36,3.13,6.12,6.89
9.474,0.25,3.11,5.65,6.46
9.484,0.13,3.16,5.19,6.08
9.494,0.04,3.20,4.87,5.83
9.504,-0.03,3.21,4.90,5.85
9.514,0.05,3.20,5.11,6.03
9.524,0.27,3.21,5.34,6.24
9.534,0.53,3.08,5.38,6.22
9.544,0.80,2.93,5.19,6.02
9.554,1.13,2.85,4.85,5.74
9.564,1.40,2.81,4.29,5.32
9.574,1.62,2.63,3.60,4.74
9.585,1.73,2.15,2.75,3.89
9.595,1.88,1.24,1.46,2.68
9.605,2.38,-0.19,-1.14,2.64
9.615,3.36,-2.47,-7.18,8.30
9.625,3.64,-7.41,-21.78,23.29
9.635,1.55,-14.42,-35.54,38.39
9.645,-0.79,-17.42,-28.51,33.42
9.655,-3.78,-14.19,-11.61,18.72
9.665,-5.48,-7.72,-1.02,9.52
9.675,-4.39,-2.50,1.73,5.34
9.685,-2.79,0.95,1.56,3.34
9.695,-1.03,3.60,1.03,3.88
9.705,-0.16,6.30,0.48,6.32
9.715,-0.13,8.42,1.02,8.49
9.726,-0.89,8.54,3.27,9.19
9.735,-3.69,5.53,6.49,9.29
9.746,-7.36,1.21,9.03,11.71
9.756,-10.70,-2.78,9.71,14.72
9.766,-12.24,-4.54,8.97,15.84
9.776,-10.33,-4.88,-0.90,11.45
9.786,-3.76,-2.91,-4.31,6.42
9.796,-0.07,0.74,3.71,3.79
9.806,1.09,2.86,5.63,6.41
9.816,1.62,4.05,5.20,6.79
9.826,1.98,4.38,4.42,6.53
9.836,1.89,3.74,3.99,5.79
9.846,1.60,1.91,3.90,4.63
9.856,0.84,-1.21,4.08,4.34
9.866,-0.10,-4.56,4.59,6.47
9.876,-0.34,-6.94,5.31,8.75
9.887,-0.11,-7.94,5.64,9.74
9.897,0.85,-7.44,5.28,9.16
9.907,1.89,-5.72,4.41,7.46
9.917,2.30,-3.93,3.65,5.84
9.927,2.36,-2.25,3.12,4.51
9.937,2.68,-0.71,2.71,3.88
9.947,3.08,0.51,2.42,3.95
9.957,3.40,1.48,2.24,4.33
9.967,3.62,2.27,2.10,4.76
9.977,3.71,3.01,2.00,5.18
9.987,3.81,3.54,1.72,5.48
9.997,3.83,3.26,1.14,5.16
10.007,3.69,2.25,0.36,4.33
10.017,3.48,1.20,-0.32,3.69
10.028,3.13,0.42,-0.78,3.25
10.038,2.57,-0.25,-1.18,2.84
10.048,1.96,-0.72,-1.69,2.68
10.058,1.42,-0.77,-2.77,3.21
10.068,0.87,-0.47,-4.42,4.53
10.078,0.62,-0.27,-5.24,5.28
10.088,0.65,-0.30,-4.87,4.92
10.098,0.63,-0.35,-4.14,4.20
10.108,0.50,-0.17,-3.66,3.70
10.118,0.20,0.04,-3.35,3.36
10.128,-0.08,0.15,-3.15,3.15
10.138,-0.34,0.06,-2.97,2.99
10.148,-0.29,-0.05,-2.79,2.80
10.158,-0.04,-0.13,-2.66,2.66
10.169,0.11,-0.31,-2.52,2.54
10.179,0.04,-0.60,-2.30,2.38
10.189,-0.26,-0.95,-1.84,2.09
10.199,-0.63,-1.29,-1.40,2.00
10.209,-0.93,-1.68,-0.97,2.15
10.219,-1.02,-1.86,-1.02,2.35
10.229,-0.72,-1.82,-1.43,2.42
10.239,-0.48,-1.67,-1.85,2.54
10.249,-0.48,-1.35,-2.38,2.78
10.259,-0.61,-0.95,-3.24,3.43
10.269,-0.70,-0.81,-4.54,4.67
10.279,-0.52,-1.69,-5.83,6.09
10.289,-0.08,-3.19,-6.47,7.21
10.299,0.31,-4.16,-6.95,8.10
10.309,0.32,-4.77,-7.80,9.15
10.319,0.10,-5.65,-8.63,10.31
10.330,0.38,-6.70,-8.63,10.93
10.340,0.67,-6.98,-8.19,10.78
10.350,1.05,-5.64,-7.20,9.21
10.360,1.84,-3.84,-5.53,6.98
10.370,2.39,-2.71,-2.93,4.66
10.380,2.09,-1.68,-0.90,2.83
10.390,2.30,-0.81,1.02,2.65
10.400,2.29,-0.17,2.34,3.28
10.410,1.81,-0.17,2.13,2.80
10.420,0.99,-0.62,2.24,2.53
10.430,0.26,-1.35,3.23,3.51
10.440,-0.41,-2.43,4.46,5.10
10.450,-1.15,-3.58,5.72,6.84
10.460,-1.62,-4.55,6.45,8.06
10.471,-1.95,-5.31,6.47,8.60
10.481,-2.22,-5.68,5.96,8.52
10.491,-3.02,-5.50,5.20,8.15
10.501,-4.22,-4.73,3.67,7.32
10.511,-4.27,-3.71,0.84,5.72
10.521,-3.03,-1.58,0.17,3.42
10.531,-2.34,0.16,0.66,2.44
10.541,-2.00,1.32,1.09,2.64
10.551,-1.70,2.20,0.85,2.91
10.561,-1.29,2.75,0.27,3.05
10.571,-0.79,3.03,0.21,3.14
10.581,-0.52,3.21,1.49,3.58
10.591,-0.24,3.29,3.17,4.58
10.601,0.64,3.18,4.33,5.41
10.611,1.18,3.13,4.99,6.01
10.621,1.33,3.17,5.07,6.12
10.632,1.01,3.15,5.12,6.10
10.642,0.64,3.03,5.48,6.29
10.652,0.31,3.05,5.64,6.42
10.662,0.07,3.16,5.62,6.44
10.672,-0.20,3.28,5.41,6.33
10.682,-0.39,3.39,5.17,6.19
10.692,-0.42,3.43,4.91,6.01
10.702,-0.26,3.43,4.74,5.86
10.712,0.06,3.41,4.85,5.93
10.722,0.37,3.36,5.12,6.13
10.732,0.65,3.20,5.33,6.25
10.742,0.96,2.99,5.40,6.25
10.753,1.26,2.81,5.22,6.06
10.762,1.42,2.74,4.83,5.73
10.773,1.49,2.66,4.22,5.20
10.783,1.58,2.42,3.50,4.54
10.793,1.71,1.86,2.59,3.62
10.803,1.97,0.87,1.02,2.38
10.813,2.65,-0.63,-2.12,3.45
10.823,4.00,-3.21,-10.27,11.48
10.833,3.95,-9.20,-27.32,29.09
10.843,0.72,-15.54,-33.40,36.85
10.853,-2.18,-16.84,-21.76,27.60
10.863,-5.02,-12.95,-7.94,15.99
10.873,-5.65,-6.62,-0.62,8.73
10.883,-4.22,-2.06,1.12,4.83
10.893,-2.48,0.88,0.97,2.81
10.903,-1.26,4.02,0.72,4.28
10.914,-0.96,6.59,1.16,6.76
10.924,-1.58,7.67,2.89,8.35
10.934,-3.90,5.74,6.06,9.22
10.944,-7.16,2.17,8.44,11.28
10.954,-9.80,-0.99,9.08,13.39
10.964,-10.94,-2.43,8.82,14.26
10.974,-9.36,-1.73,5.90,11.20
10.984,-5.30,-1.37,-3.69,6.60
10.994,-1.26,0.79,1.17,1.89
11.004,-0.35,2.45,5.88,6.38
11.014,0.26,3.20,5.37,6.26
11.024,0.38,3.20,4.23,5.32
11.034,0.11,2.42,3.80,4.51
11.044,-0.39,0.81,3.92,4.02
11.054,-0.75,-1.26,4.20,4.45
11.064,-0.56,-3.26,4.67,5.72
11.075,0.22,-4.65,5.39,7.13
11.085,1.19,-5.19,5.78,7.85
11.095,1.82,-4.74,4.85,7.03
11.105,2.06,-3.98,3.89,5.93
11.115,2.14,-2.94,3.01,4.72
11.125,2.25,-1.84,2.34,3.73
11.135,2.76,-0.85,2.00,3.51
11.145,3.33,0.07,1.76,3.77
11.155,3.71,0.82,1.52,4.09
11.165,3.97,1.35,1.38,4.42
11.175,4.24,1.84,1.33,4.81
11.185,4.67,2.03,0.87,5.16
11.195,5.11,1.66,-0.09,5.37
11.205,5.38,0.99,-1.25,5.61
11.216,5.45,0.51,-3.40,6.44
11.226,4.99,0.27,-5.93,7.75
11.236,3.97,-0.33,-6.27,7.43
11.246,3.58,-0.75,-5.40,6.53
11.256,3.31,-0.77,-4.17,5.38
11.266,2.35,-0.55,-3.21,4.02
11.276,1.56,-0.32,-2.70,3.13
11.286,1.01,-0.02,-2.31,2.52
11.296,0.54,0.19,-2.10,2.18
11.306,0.01,0.11,-2.07,2.07
11.316,-0.25,-0.11,-2.17,2.19
11.326,-0.16,-0.35,-2.27,2.30
11.336,0.07,-0.66,-2.40,2.49
11.346,0.27,-0.78,-2.43,2.57
11.357,0.13,-0.81,-2.24,2.38
11.366,-0.17,-0.89,-1.97,2.17
11.377,-0.42,-1.05,-1.62,1.98
11.387,-0.80,-1.15,-1.17,1.82
11.397,-1.14,-1.17,-0.77,1.80
11.407,-1.30,-1.18,-0.63,1.87
11.417,-1.41,-1.07,-0.70,1.90
11.427,-1.62,-0.92,-1.11,2.17
11.437,-2.05,-0.70,-1.54,2.66
11.447,-2.26,-0.65,-1.90,3.02
11.457,-1.93,-0.61,-2.42,3.16
11.467,-1.56,-0.75,-3.97,4.33
11.478,-1.75,-1.73,-8.63,8.97
11.487,-1.72,-3.28,-14.75,15.20
11.498,-1.13,-4.13,-15.56,16.14
11.508,0.16,-5.19,-11.25,12.39
11.518,0.74,-6.63,-7.70,10.19
11.528,0.67,-7.13,-5.47,9.01
11.538,0.58,-6.78,-4.06,7.93
11.548,0.76,-5.35,-2.97,6.16
11.558,1.26,-3.51,-1.39,3.98
11.568,1.94,-2.25,1.24,3.22
11.578,2.62,-1.95,2.38,4.04
11.588,2.67,-1.61,2.33,3.90
11.598,1.94,-1.79,2.64,3.73
11.608,0.68,-2.56,3.14,4.11
11.618,-0.44,-3.46,3.85,5.19
11.628,-1.17,-4.18,5.15,6.74
11.638,-1.59,-4.64,6.19,7.90
11.648,-1.76,-5.12,6.29,8.30
11.659,-1.92,-5.45,5.81,8.19
11.669,-2.60,-4.91,5.13,7.56
11.679,-3.15,-3.89,3.25,5.96
11.689,-2.46,-2.70,1.35,3.89
11.699,-0.88,-1.01,1.52,2.03
11.709,-0.50,0.28,1.58,1.68
11.719,-0.71,1.39,2.24,2.73
11.729,-1.50,2.56,3.87,4.87
11.739,-2.00,3.50,1.40,4.27
11.749,-0.75,3.90,-1.02,4.10
11.759,0.62,3.50,-0.62,3.61
11.769,0.16,3.11,2.05,3.72
11.779,-0.20,3.27,4.71,5.73
11.789,0.16,3.35,5.43,6.38
11.799,0.59,3.33,5.81,6.73
11.810,0.70,3.29,6.36,7.19
11.820,0.70,3.30,6.67,7.47
11.830,0.58,3.32,6.75,7.54
11.840,0.36,3.36,6.60,7.41
11.850,0.04,3.43,6.23,7.11
11.860,-0.29,3.44,5.84,6.78
11.870,-0.58,3.44,5.36,6.39
11.880,-0.74,3.40,5.05,6.13
11.890,-0.66,3.35,5.05,6.09
11.900,-0.37,3.24,5.21,6.14
11.910,-0.10,3.03,5.38,6.18
11.920,0.19,2.79,5.35,6.04
11.930,0.72,2.71,5.03,5.76
11.940,1.25,2.73,4.50,5.41
11.950,1.62,2.58,3.76,4.84
11.961,1.90,2.16,2.86,4.05
11.971,2.15,1.40,1.63,3.04
11.981,2.53,0.14,-0.36,2.56
11.991,3.10,-1.91,-5.41,6.52
12.001,4.12,-6.72,-21.87,23.25
12.011,2.02,-14.32,-37.53,40.23
12.021,-1.24,-18.22,-29.84,34.99
12.031,-4.50,-15.14,-10.76,19.11
12.041,-5.26,-8.48,0.26,9.98
12.051,-3.98,-3.16,2.65,5.73
12.061,-2.47,0.17,2.35,3.41
12.071,-1.06,3.28,1.40,3.72
12.081,-0.50,6.53,0.07,6.55
12.091,-0.77,8.58,0.96,8.67
12.102,-2.10,7.90,4.15,9.17
12.112,-5.14,4.41,7.70,10.25
12.122,-8.64,0.75,9.54,12.90
12.132,-11.06,-2.13,10.12,15.14
12.142,-11.00,-2.95,8.72,14.35
12.152,-9.38,-3.16,0.08,9.90
12.162,-5.07,-3.23,-5.86,8.39
12.172,-1.23,-0.74,2.18,2.61
12.182,-0.28,1.18,5.48,5.61
12.192,0.18,2.26,5.11,5.59
12.202,0.37,2.58,4.09,4.85
12.212,0.39,2.06,3.88,4.41
12.222,0.42,0.46,4.27,4.32
12.232,0.51,-1.57,4.66,4.94
12.243,0.57,-3.21,4.69,5.71
12.253,1.00,-4.20,4.36,6.14
12.263,1.21,-4.36,3.93,5.99
12.273,1.94,-3.82,3.69,5.65
12.283,2.66,-3.02,3.33,5.22
12.293,3.24,-1.99,2.92,4.79
12.303,3.55,-0.95,2.59,4.50
12.313,3.75,0.01,2.31,4.40
12.323,3.82,0.81,1.94,4.35
12.333,3.73,1.38,1.56,4.27
12.343,3.72,1.77,1.24,4.30
12.353,3.85,2.09,1.00,4.50
12.363,3.96,2.34,0.86,4.68
12.373,4.12,2.43,0.69,4.83
12.384,4.17,2.10,0.30,4.68
12.394,4.09,1.37,-0.29,4.32
12.404,3.88,0.54,-0.87,4.02
12.414,3.53,-0.21,-1.39,3.80
12.424,2.97,-0.76,-1.81,3.56
12.434,2.39,-1.05,-2.09,3.35
12.444,1.60,-0.89,-2.67,3.24
12.454,0.38,-0.21,-3.90,3.93
12.464,0.18,0.26,-4.03,4.04
12.474,0.70,0.32,-3.32,3.40
12.484,0.83,0.21,-2.83,2.95
12.494,0.52,0.07,-2.75,2.80
12.504,-0.08,-0.26,-2.62,2.64
12.514,-0.57,-0.53,-2.53,2.64
12.524,-0.84,-0.87,-2.44,2.72
12.534,-1.03,-1.33,-2.37,2.91
12.545,-0.96,-1.79,-2.45,3.18
12.555,-0.84,-2.04,-2.35,3.22
12.565,-1.04,-2.10,-2.19,3.21
12.575,-1.16,-1.89,-2.11,3.06
12.585,-1.21,-1.18,-2.17,2.75
12.595,-1.28,-0.55,-2.50,2.86
12.605,-1.53,-0.67,-2.79,3.26
12.615,-1.75,-0.86,-3.03,3.60
12.625,-1.85,-0.97,-3.40,3.99
12.635,-1.89,-1.02,-4.50,4.98
12.645,-2.12,-1.43,-6.90,7.36
12.655,-2.09,-2.76,-9.90,10.49
12.665,-1.48,-4.11,-11.82,12.60
12.675,-0.53,-5.42,-11.58,12.80
12.685,0.54,-7.01,-9.64,11.93
12.696,1.12,-8.04,-7.60,11.12
12.706,1.09,-7.73,-5.74,9.69
12.716,1.14,-5.83,-3.91,7.11
12.726,2.06,-3.83,-1.91,4.76
12.736,2.28,-2.15,-0.14,3.14
12.746,1.85,-0.83,1.68,2.63
12.756,1.56,-0.36,2.22,2.74
12.766,1.00,-0.40,1.40,1.77
12.776,0.61,-0.97,1.70,2.05
12.786,-0.16,-2.07,2.59,3.32
12.796,-1.01,-3.23,3.73,5.04
12.806,-1.72,-4.29,5.08,6.87
12.816,-2.41,-5.13,5.99,8.25
12.826,-3.06,-5.80,5.79,8.74
12.837,-3.68,-5.86,5.11,8.60
12.847,-4.49,-5.01,4.34,8.00
12.857,-4.97,-4.10,2.15,6.79
12.867,-4.03,-2.57,-0.02,4.78
12.877,-2.83,-0.58,0.48,2.93
12.887,-2.23,0.97,2.06,3.19
12.897,-1.82,2.22,3.68,4.67
12.907,-1.59,3.48,5.21,6.46
12.917,-1.06,4.30,5.58,7.12
12.927,-0.18,4.35,3.55,5.61
12.938,0.32,4.08,0.84,4.18
12.947,0.45,3.93,0.61,4.01
12.957,-0.02,3.65,1.78,4.06
12.967,-0.29,3.49,3.57,5.00
12.977,-0.09,3.33,5.11,6.10
12.988,0.02,3.11,6.15,6.90
12.997,0.04,2.86,6.86,7.43
13.008,0.10,2.71,7.17,7.67
13.017,0.17,2.62,7.34,7.80
13.028,0.14,2.70,7.18,7.67
13.038,0.04,2.85,6.61,7.20
13.048,0.09,2.99,5.87,6.59
13.058,0.35,3.20,5.39,6.27
13.068,0.76,3.40,5.47,6.49
13.078,1.08,3.48,5.86,6.90
13.088,1.08,3.39,6.13,7.09
13.098,0.89,3.30,6.02,6.92
13.108,0.88,3.20,5.60,6.51
13.118,1.04,3.06,5.03,5.98
13.129,1.11,2.58,4.33,5.16
13.138,1.09,1.70,3.29,3.86
13.149,1.45,0.40,1.26,1.96
13.159,2.51,-1.42,-3.51,4.54
13.169,5.59,-6.35,-25.07,26.46
13.179,4.73,-17.69,-52.94,56.02
13.189,1.02,-20.58,-32.65,38.61
13.199,-1.05,-15.45,-7.50,17.21
13.209,-3.42,-8.25,2.72,9.34
13.219,-3.29,-2.46,4.89,6.39
13.229,-1.77,0.81,3.87,4.33
13.239,-0.67,3.46,2.25,4.18
13.249,-0.30,6.24,0.01,6.25
13.259,-0.27,8.37,-0.28,8.38
13.270,-1.79,7.47,3.16,8.31
13.279,-6.13,3.50,8.05,10.70
13.290,-11.22,-0.56,10.41,15.32
13.300,-13.71,-2.60,10.03,17.19
13.310,-13.64,-2.37,6.59,15.33
13.320,-10.69,-1.26,-3.65,11.37
13.330,-3.97,0.58,-0.18,4.01
13.340,-1.32,1.81,5.52,5.96
13.350,-0.06,2.37,6.54,6.96
13.360,0.22,2.22,5.85,6.26
13.370,-0.01,1.23,5.21,5.36
13.380,-0.07,-0.48,5.35,5.37
13.390,-0.13,-2.42,5.34,5.87
13.400,0.03,-4.16,5.41,6.83
13.411,0.48,-5.30,5.38,7.57
13.420,1.09,-5.56,4.99,7.55
13.431,1.61,-5.07,4.83,7.18
13.441,2.21,-3.96,4.58,6.44
13.451,3.03,-2.80,3.89,5.67
13.461,3.71,-1.72,3.34,5.28
13.471,3.94,-0.60,2.95,4.96
13.481,3.81,0.27,2.36,4.49
13.491,3.74,0.98,1.79,4.26
13.501,3.77,1.61,1.33,4.31
13.511,3.88,2.10,0.99,4.52
13.521,4.07,2.42,0.83,4.81
13.531,4.28,2.49,0.65,4.99
13.541,4.43,2.14,0.15,4.92
13.551,4.49,1.18,-0.74,4.70
13.561,4.55,-0.01,-2.17,5.04
13.571,4.23,-1.14,-5.05,6.68
13.581,3.26,-1.82,-6.84,7.79
13.592,2.76,-1.84,-6.46,7.27
13.602,2.89,-1.41,-5.19,6.10
13.612,2.68,-0.84,-3.81,4.73
13.622,1.79,-0.36,-3.01,3.52
13.632,1.00,0.13,-2.60,2.79
13.642,0.33,0.40,-2.37,2.42
13.652,-0.36,0.28,-2.51,2.56
13.662,-0.67,0.05,-2.60,2.68
13.672,-0.35,-0.08,-2.66,2.69
13.682,0.16,-0.12,-2.72,2.72
13.692,0.53,-0.25,-2.68,2.74
13.702,0.66,-0.34,-2.51,2.61
13.712,0.48,-0.49,-2.10,2.21
13.722,0.02,-0.74,-1.81,1.96
13.732,-0.46,-1.04,-1.62,1.97
13.743,-0.74,-1.40,-1.41,2.12
13.753,-0.96,-1.69,-1.27,2.32
13.763,-1.05,-1.82,-1.32,2.48
13.773,-1.25,-1.49,-1.49,2.45
13.783,-1.87,-1.02,-1.66,2.70
13.793,-2.41,-0.98,-1.85,3.19
13.803,-2.19,-1.38,-2.11,3.34
13.813,-1.48,-1.97,-2.56,3.56
13.823,-0.97,-2.62,-4.13,4.99
13.833,-1.35,-3.43,-9.58,10.27
13.843,-2.16,-4.79,-16.75,17.55
13.853,-2.11,-6.80,-16.56,18.03
13.863,-0.87,-8.24,-10.96,13.74
13.874,-0.21,-7.85,-6.67,10.30
13.884,0.50,-5.84,-3.45,6.81
13.894,1.72,-3.90,-0.86,4.35
13.904,2.26,-2.59,0.68,3.50
13.914,2.49,-1.26,1.53,3.19
13.924,2.88,-0.47,2.40,3.78
13.934,2.67,-0.21,2.29,3.52
13.944,2.15,-0.03,2.16,3.04
13.954,1.37,-0.56,2.28,2.72
13.964,0.26,-1.53,2.72,3.14
13.974,-0.88,-2.68,3.61,4.58
13.984,-1.73,-3.82,4.62,6.24
13.994,-2.21,-4.87,5.32,7.54
14.004,-2.41,-5.80,5.60,8.41
14.015,-2.71,-6.18,5.31,8.58
14.025,-3.23,-5.47,4.80,7.96
14.035,-3.44,-4.23,3.54,6.50
14.045,-3.06,-2.90,1.54,4.49
14.055,-1.89,-1.04,1.07,2.41
14.065,-1.40,0.33,1.66,2.20
14.075,-1.23,1.34,2.25,2.89
14.085,-0.97,2.17,2.56,3.49
14.095,-0.73,2.80,2.65,3.93
14.105,-0.21,3.28,2.14,3.92
14.115,0.10,3.45,1.24,3.66
14.125,0.54,3.31,1.37,3.62
14.135,1.09,3.26,2.90,4.50
14.145,1.29,3.36,4.11,5.46
14.155,1.71,3.42,4.89,6.20
14.165,1.79,3.44,5.62,6.83
14.176,1.64,3.35,6.34,7.35
14.185,1.43,3.20,6.79,7.64
14.196,0.82,2.98,6.68,7.36
14.206,0.23,2.92,6.43,7.06
14.216,-0.32,2.95,5.89,6.59
14.226,-0.57,3.01,5.35,6.17
14.236,-0.54,3.10,5.06,5.96
14.246,-0.31,3.26,5.05,6.02
14.256,0.15,3.43,5.27,6.28
14.266,0.61,3.52,5.55,6.60
14.276,0.91,3.53,5.62,6.69
14.286,1.10,3.38,5.51,6.55
14.296,1.24,3.12,5.21,6.20
14.306,1.26,2.68,4.73,5.58
14.317,1.19,1.96,4.10,4.70
14.326,1.12,0.93,2.82,3.17
14.337,1.50,-0.53,-0.23,1.60
14.347,2.66,-2.92,-8.47,9.35
14.357,3.27,-8.99,-29.53,31.04
14.367,1.31,-16.89,-42.05,45.33
14.377,-0.32,-18.09,-26.43,32.03
14.387,-3.44,-12.53,-5.99,14.31
14.397,-4.79,-6.11,2.35,8.11
14.407,-3.87,-1.61,3.40,5.40
14.417,-2.61,1.43,2.56,3.93
14.427,-1.06,3.84,1.44,4.23
14.438,-0.28,6.33,0.41,6.34
14.447,0.05,8.39,0.64,8.42
14.458,-0.64,8.12,3.08,8.70
14.467,-3.73,4.68,6.39,8.75
14.478,-7.49,0.50,8.69,11.48
14.488,-10.95,-3.05,9.54,14.84
14.498,-12.56,-5.01,8.52,15.98
14.508,-11.27,-5.72,-0.96,12.68
14.518,-4.90,-3.30,-1.73,6.16
14.528,-0.77,0.18,4.18,4.26
14.538,0.19,1.92,5.43,5.76
14.548,0.84,2.88,4.79,5.65
14.558,1.19,3.05,4.02,5.19
14.568,0.91,2.20,3.77,4.46
14.578,0.76,0.61,3.99,4.11
14.588,0.74,-1.72,4.46,4.84
14.598,0.53,-3.91,4.63,6.08
14.608,0.81,-5.24,4.80,7.15
14.618,1.31,-5.51,4.52,7.24
14.629,1.87,-4.70,3.79,6.32
14.639,2.66,-3.51,3.30,5.50
14.649,3.26,-2.30,2.95,4.96
14.659,3.60,-1.05,2.59,4.55
14.669,3.61,0.10,2.16,4.20
14.679,3.72,1.05,1.74,4.24
14.689,3.84,1.75,1.44,4.46
14.699,4.03,2.31,1.33,4.84
14.709,4.35,2.68,1.09,5.22
14.719,4.60,2.69,0.55,5.36
14.729,4.63,2.26,-0.19,5.15
14.740,4.59,1.58,-0.97,4.95
14.749,4.29,0.98,-1.60,4.68
14.759,3.75,0.51,-2.07,4.32
14.769,3.01,0.11,-2.45,3.89
14.780,2.25,-0.48,-2.79,3.62
14.790,1.01,-1.08,-4.48,4.71
14.800,-0.26,-1.21,-5.69,5.82
14.810,0.19,-0.79,-4.33,4.41
14.820,0.95,-0.34,-2.92,3.09
14.830,0.96,-0.04,-2.22,2.42
14.840,0.49,0.05,-1.89,1.95
14.850,-0.06,-0.10,-1.80,1.80
14.860,-0.32,-0.29,-1.84,1.89
14.870,-0.23,-0.30,-1.94,1.97
14.880,0.11,-0.24,-2.11,2.13
14.890,0.34,-0.24,-2.17,2.20
14.900,0.22,-0.26,-2.05,2.08
14.910,-0.06,-0.47,-1.88,1.94
14.921,-0.39,-0.79,-1.69,1.91
14.931,-0.71,-1.08,-1.48,1.97
14.941,-0.96,-1.29,-1.31,2.07
14.951,-0.96,-1.40,-1.23,2.10
14.961,-0.67,-1.49,-1.24,2.05
14.971,-0.23,-1.45,-1.30,1.96
14.981,-0.06,-1.02,-1.47,1.79
14.991,-0.53,-0.73,-1.77,1.99
15.001,-0.84,-0.89,-1.99,2.34
15.011,-0.59,-1.36,-2.23,2.68
15.021,-0.05,-1.82,-2.61,3.18
15.031,0.39,-2.30,-3.12,3.90
15.041,0.46,-3.17,-4.54,5.55
15.051,-0.17,-5.39,-9.90,11.27
15.062,-0.55,-8.52,-18.30,20.19
15.071,0.19,-10.19,-18.44,21.07
15.082,1.80,-8.88,-10.90,14.17
15.092,2.21,-5.29,-4.53,7.30
15.102,2.12,-2.97,-0.01,3.65
15.112,2.51,-2.33,1.30,3.66
15.122,2.55,-1.24,1.96,3.45
15.132,1.90,-0.79,2.54,3.27
15.142,1.14,-0.76,2.23,2.62
15.152,0.78,-1.18,2.37,2.76
15.162,0.12,-2.14,2.92,3.62
15.172,-0.68,-3.07,4.07,5.14
15.182,-1.52,-3.95,5.44,6.89
15.192,-2.39,-4.86,6.18,8.22
15.202,-3.09,-5.48,6.13,8.79
15.213,-3.66,-5.59,5.50,8.66
15.223,-4.16,-4.92,4.69,7.97
15.233,-4.17,-3.65,3.67,6.65
15.243,-4.06,-2.20,1.28,4.80
15.253,-3.26,-0.37,-0.47,3.32
15.263,-2.48,1.29,0.55,2.85
15.273,-2.02,2.35,2.08,3.73
15.283,-1.48,3.32,3.39,4.96
15.293,-0.99,3.99,4.16,5.86
15.303,-0.77,4.53,4.70,6.57
15.313,-0.49,4.55,4.14,6.17
15.323,0.42,4.25,1.84,4.65
15.333,0.99,3.83,0.87,4.05
15.343,1.65,3.51,1.95,4.34
15.353,2.01,3.29,3.50,5.21
15.364,2.06,2.94,4.44,5.71
15.374,1.80,2.55,5.27,6.12
15.384,1.73,2.21,5.92,6.55
15.394,1.84,1.93,6.09,6.65
15.404,1.63,1.82,5.85,6.34
15.414,1.08,1.84,5.49,5.89
15.424,0.48,2.10,5.15,5.58
15.434,0.27,2.52,4.98,5.59
15.444,0.28,2.94,5.06,5.86
15.454,0.24,3.16,5.25,6.14
15.464,0.11,3.22,5.35,6.24
15.474,-0.07,3.21,5.20,6.12
15.484,-0.02,3.30,4.97,5.96
15.494,0.32,3.39,4.58,5.71
15.505,0.70,3.28,4.13,5.32
15.515,1.02,2.83,3.54,4.65
15.525,1.30,1.97,2.44,3.40
15.535,1.75,0.59,0.21,1.86
15.545,2.55,-1.47,-5.14,5.92
15.555,3.68,-5.96,-20.58,21.74
15.565,2.39,-13.14,-34.66,37.15
15.575,0.80,-16.72,-28.60,33.13
15.585,-1.04,-14.59,-13.11,19.65
15.595,-3.19,-8.41,-1.18,9.08
15.605,-3.85,-2.97,2.00,5.26
15.615,-3.25,0.27,2.13,3.90
15.625,-1.72,2.47,1.60,3.41
15.635,-1.16,4.16,0.77,4.39
15.645,-2.55,4.53,1.11,5.32
15.656,-5.61,2.25,4.76,7.69
15.666,-8.95,-0.96,8.24,12.20
15.676,-11.77,-3.15,9.07,15.18
15.686,-12.40,-2.94,8.46,15.29
15.696,-10.98,-0.83,0.43,11.02
15.706,-7.06,1.98,-5.22,9.00
15.716,-2.04,3.86,3.24,5.43
15.726,-0.61,4.17,6.59,7.82
15.736,0.58,4.41,6.31,7.72
15.746,0.84,3.97,5.26,6.64
15.756,0.79,2.48,4.87,5.52
15.766,0.47,0.26,4.84,4.87
15.776,0.06,-2.30,5.39,5.86
15.786,0.20,-4.41,5.54,7.08
15.796,0.54,-5.68,5.70,8.07
15.807,0.99,-5.90,6.02,8.48
15.817,1.40,-5.12,5.35,7.53
15.827,1.99,-3.93,4.47,6.27
15.837,2.59,-2.54,3.49,5.03
15.847,2.76,-1.09,2.57,3.93
15.857,3.00,0.31,2.03,3.64
15.867,3.24,1.34,1.69,3.89
15.877,3.48,2.08,1.49,4.32
15.887,3.71,2.53,1.34,4.69
15.897,3.88,2.75,1.20,4.90
15.907,4.10,2.79,1.06,5.08
15.917,4.26,2.63,0.91,5.09
15.927,4.27,2.22,0.79,4.87
15.937,4.07,1.45,0.61,4.36
15.947,3.83,0.42,-0.02,3.85
15.957,3.56,-0.67,-0.76,3.70
15.968,3.14,-1.51,-1.70,3.87
15.978,2.18,-1.83,-3.70,4.67
15.988,0.87,-1.66,-5.48,5.79
15.998,0.91,-1.22,-5.43,5.64
16.008,1.84,-0.69,-4.27,4.70
16.018,1.77,-0.22,-3.49,3.92
16.028,1.00,0.05,-3.34,3.49
16.038,0.27,-0.04,-3.40,3.41
16.048,-0.51,-0.44,-3.52,3.58
16.058,-0.97,-0.91,-3.76,3.99
16.068,-0.94,-1.26,-3.72,4.04
16.078,-0.68,-1.63,-3.56,3.97
16.089,-0.43,-1.85,-3.47,3.96
16.098,-0.41,-1.88,-3.16,3.70
16.109,-0.69,-1.91,-2.86,3.50
16.119,-1.09,-1.73,-2.99,3.63
16.129,-1.38,-1.42,-3.26,3.81
16.139,-1.43,-1.17,-3.29,3.77
16.149,-1.53,-1.10,-3.45,3.93
16.159,-1.82,-1.09,-3.73,4.29
16.169,-1.83,-0.97,-4.01,4.52
16.179,-1.41,-0.96,-4.36,4.69
16.189,-0.67,-1.45,-4.18,4.47
16.199,0.11,-2.73,-3.88,4.75
16.209,0.31,-3.93,-4.56,6.03
16.219,0.31,-5.05,-5.99,7.84
16.229,0.39,-6.22,-8.14,10.26
16.239,0.51,-7.23,-9.36,11.83
16.250,0.45,-7.34,-9.26,11.83
16.260,0.32,-5.76,-8.22,10.04
16.270,0.51,-3.82,-5.95,7.09
16.280,1.45,-2.67,-2.38,3.86
16.290,2.63,-1.86,0.67,3.29
16.300,3.05,-1.05,2.67,4.18
16.310,2.82,-0.67,3.09,4.24
16.320,2.27,-0.99,2.71,3.67
16.330,1.34,-1.67,3.03,3.71
16.340,0.17,-2.60,4.08,4.84
16.350,-0.66,-3.53,5.46,6.53
16.360,-1.19,-4.35,6.89,8.23
16.370,-1.48,-4.84,7.42,8.98
16.380,-1.81,-4.85,6.95,8.67
16.390,-2.19,-4.38,6.43,8.08
16.400,-2.46,-3.43,5.39,6.85
16.410,-2.62,-2.16,2.99,4.52
16.421,-2.10,-0.46,4.05,4.59
16.431,-2.47,1.12,4.10,4.91
16.441,-3.62,2.75,7.58,8.84
16.451,-1.74,3.53,-6.50,7.60
16.461,-0.79,3.24,-6.02,6.88
16.471,-1.67,2.94,-2.67,4.31
16.481,-1.17,2.54,-0.68,2.87
16.491,-1.32,2.66,2.76,4.05
16.501,-1.24,3.08,5.16,6.13
16.511,-1.23,3.23,7.02,7.83
16.521,0.02,3.46,5.94,6.87
16.531,0.60,3.42,5.69,6.67
16.541,0.68,3.30,6.58,7.39
16.552,0.29,3.16,7.13,7.80
16.562,-0.36,2.99,7.09,7.71
16.572,-0.18,3.04,6.37,7.06
16.582,-0.31,2.99,5.91,6.63
16.592,-0.41,2.90,5.38,6.13
16.602,-0.35,2.93,4.84,5.67
16.612,-0.31,2.95,4.60,5.47
16.622,-0.29,2.92,4.63,5.48
16.632,-0.18,2.91,4.69,5.53
16.642,0.11,2.96,4.63,5.50
16.652,0.49,3.05,4.38,5.36
16.662,0.98,3.04,3.91,5.05
16.673,1.50,2.72,3.21,4.47
16.682,1.96,2.00,2.28,3.61
16.693,2.36,0.80,0.77,2.61
16.702,2.89,-0.90,-1.92,3.59
16.713,4.08,-3.99,-11.62,12.94
16.723,3.88,-11.65,-33.21,35.41
16.733,0.71,-17.55,-33.97,38.25
16.743,-0.81,-16.08,-16.89,23.34
16.753,-3.07,-10.33,-3.82,11.43
16.763,-4.39,-4.36,1.35,6.33
16.773,-3.63,-0.43,1.54,3.96
16.783,-2.13,2.18,1.04,3.22
16.793,-1.19,4.42,0.63,4.62
16.803,-1.24,6.31,0.63,6.47
16.813,-2.15,6.25,2.80,7.18
16.823,-4.93,3.48,6.40,8.80
16.833,-8.30,0.03,8.31,11.74
16.844,-11.09,-2.78,8.93,14.51
16.854,-11.99,-3.60,8.44,15.09
16.864,-9.96,-2.51,4.30,11.14
16.874,-6.13,-1.42,-2.82,6.90
16.884,-2.14,0.48,2.76,3.52
16.894,-0.98,1.67,5.51,5.84
16.904,-0.24,2.51,4.45,5.11
16.914,0.07,2.69,3.43,4.36
16.924,0.03,2.12,2.97,3.65
16.934,0.20,1.01,2.87,3.04
16.944,0.55,-0.60,3.23,3.33
16.954,0.83,-2.21,3.74,4.42
16.964,1.13,-3.31,4.64,5.81
16.974,1.44,-3.85,4.90,6.40
16.984,1.74,-3.58,4.25,5.82
16.995,2.29,-2.70,3.91,5.28
17.005,2.65,-1.75,3.34,4.61
17.015,3.07,-0.74,2.77,4.20
17.025,3.23,0.13,2.39,4.02
17.035,3.33,0.79,1.97,3.95
17.045,3.48,1.33,1.68,4.09
17.055,3.68,1.69,1.48,4.31
17.065,3.93,2.01,1.38,4.63
17.075,4.08,2.20,1.30,4.81
17.085,4.20,2.08,0.97,4.78
17.095,4.20,1.53,0.38,4.49
17.105,4.01,0.70,-0.31,4.08
17.115,3.60,-0.17,-0.93,3.72
17.125,3.10,-0.83,-1.85,3.70
17.135,2.21,-1.11,-4.32,4.97
17.145,1.38,-1.30,-5.63,5.94
17.156,1.84,-1.09,-4.89,5.34
17.166,2.43,-0.82,-3.68,4.49
17.176,1.99,-0.47,-3.01,3.64
17.186,1.28,-0.20,-2.74,3.03
17.196,0.68,-0.14,-2.58,2.67
17.206,-0.03,-0.36,-2.67,2.70
17.216,-0.71,-0.64,-2.80,2.96
17.226,-0.81,-0.64,-2.71,2.90
17.236,-0.44,-0.51,-2.71,2.79
17.246,0.01,-0.46,-2.75,2.79
17.256,0.36,-0.49,-2.66,2.72
17.266,0.37,-0.55,-2.39,2.48
17.276,0.04,-0.64,-1.91,2.02
17.286,-0.49,-0.65,-1.24,1.48
17.297,-0.85,-0.88,-1.05,1.61
17.307,-0.85,-1.20,-0.97,1.76
17.317,-0.66,-1.59,-1.37,2.20
17.327,-0.56,-1.41,-1.99,2.50
17.337,-1.09,-1.06,-2.56,2.98
17.347,-1.89,-1.03,-3.41,4.04
17.357,-2.50,-1.46,-5.36,6.09
17.367,-2.84,-2.44,-8.63,9.40
17.377,-2.11,-3.59,-11.10,11.86
17.387,-0.81,-4.44,-10.98,11.88
17.397,-0.31,-5.68,-9.91,11.43
17.407,-0.09,-7.01,-8.30,10.86
17.417,0.85,-7.63,-5.93,9.70
17.427,1.28,-7.03,-4.33,8.36
17.437,1.65,-4.94,-3.38,6.21
17.448,2.14,-3.04,-1.98,4.21
17.458,2.58,-1.89,0.57,3.24
17.468,3.30,-1.51,1.70,4.01
17.478,3.69,-1.10,1.64,4.18
17.488,3.44,-0.96,1.73,3.97
17.498,2.70,-1.42,1.95,3.62
17.508,1.51,-2.22,2.71,3.82
17.518,0.44,-2.98,4.06,5.06
17.528,-0.35,-3.86,5.27,6.54
17.538,-1.14,-4.77,6.18,7.89
17.548,-1.75,-5.33,6.43,8.53
17.558,-2.06,-5.36,5.86,8.21
17.568,-2.41,-4.59,5.03,7.23
17.578,-2.41,-3.13,4.01,5.62
17.589,-1.94,-1.88,0.92,2.86
17.599,-1.07,-0.23,-0.43,1.18
17.609,-0.65,1.35,0.89,1.74
17.619,-0.66,2.29,2.64,3.56
17.629,-0.67,3.13,3.97,5.10
17.639,-1.05,3.68,4.29,5.75
17.649,-0.75,3.88,2.77,4.83
17.659,-0.05,3.74,1.19,3.92
17.669,0.41,3.35,1.44,3.67
17.679,0.37,3.18,2.88,4.31
17.689,0.58,3.08,4.07,5.13
17.699,0.55,2.90,5.05,5.85
17.709,0.53,2.65,5.82,6.42
17.719,0.35,2.53,6.29,6.79
17.729,0.23,2.40,6.44,6.88
17.740,-0.09,2.36,6.15,6.59
17.750,-0.51,2.52,5.73,6.28
17.760,-0.94,2.82,5.29,6.07
17.770,-1.03,3.16,5.05,6.05
17.780,-0.84,3.40,5.10,6.19
17.790,-0.58,3.46,5.22,6.29
17.800,-0.44,3.36,5.35,6.33
17.810,-0.17,3.23,5.39,6.28
17.820,0.03,3.10,5.23,6.08
17.830,0.32,2.98,4.93,5.77
17.840,0.80,2.73,4.44,5.27
17.850,1.19,2.16,3.77,4.50
17.860,1.52,1.26,2.69,3.34
17.870,2.10,-0.04,0.61,2.18
17.881,3.09,-1.85,-4.11,5.47
17.891,5.08,-6.01,-19.84,21.34
17.901,4.81,-13.67,-38.04,40.70
17.911,2.66,-17.20,-30.83,35.40
17.921,-0.70,-14.18,-12.70,19.05
17.931,-3.99,-7.88,-1.53,8.96
17.941,-4.01,-2.64,1.43,5.02
17.951,-2.54,0.41,1.35,2.90
17.961,-0.78,2.75,0.90,2.99
17.971,0.29,5.16,0.80,5.23
17.981,0.51,7.24,1.34,7.38
17.991,0.05,7.32,3.57,8.14
18.001,-2.55,4.71,6.09,8.11
18.011,-6.84,0.57,8.07,10.59
18.021,-10.98,-3.46,9.58,14.97
18.032,-13.81,-5.79,9.71,17.84
18.042,-13.69,-5.92,7.05,16.50
18.052,-9.78,-3.82,-4.99,11.63
18.062,-3.24,-0.31,-1.86,3.75
18.072,-1.14,1.54,4.96,5.32
18.082,0.06,2.88,5.35,6.07
18.092,0.75,3.58,4.21,5.58
18.102,0.85,3.39,3.61,5.03
18.112,0.82,2.28,3.50,4.26
18.122,1.00,0.47,3.45,3.62
18.132,1.15,-1.74,3.85,4.37
18.142,1.06,-3.68,4.29,5.75
18.152,0.94,-4.69,4.16,6.34
18.162,1.47,-4.69,3.84,6.24
18.172,2.34,-4.07,3.52,5.86
18.183,2.97,-3.08,3.05,5.25
18.192,3.31,-1.85,2.59,4.59
18.203,3.40,-0.66,2.21,4.11
18.213,3.51,0.33,1.81,3.96
18.223,3.65,1.13,1.42,4.08
18.233,3.83,1.80,1.12,4.38
18.243,4.05,2.36,0.98,4.79
18.253,4.28,2.67,0.84,5.12
18.263,4.52,2.64,0.48,5.26
18.273,4.56,2.16,-0.09,5.05
18.283,4.47,1.39,-0.70,4.73
18.293,4.21,0.62,-1.23,4.43
18.303,3.78,-0.12,-1.63,4.12
18.313,3.26,-0.63,-1.92,3.83
18.324,2.82,-0.75,-2.04,3.56
18.333,2.46,-0.44,-2.12,3.28
18.344,2.15,-0.01,-2.26,3.12
18.353,1.76,0.31,-2.39,2.98
18.364,1.19,0.39,-2.54,2.83
18.374,0.40,0.22,-2.80,2.84
18.384,-0.27,-0.27,-2.89,2.92
18.394,-0.62,-0.91,-2.71,2.93
18.404,-0.70,-1.44,-2.43,2.91
18.414,-0.67,-1.73,-2.31,2.97
18.424,-0.54,-1.89,-2.26,2.99
18.434,-0.58,-1.99,-2.02,2.89
18.444,-0.80,-2.07,-1.80,2.86
18.454,-1.05,-2.03,-1.58,2.78
18.464,-1.54,-1.63,-1.56,2.73
18.475,-2.00,-1.19,-1.86,2.98
18.485,-2.20,-1.18,-2.42,3.48
18.495,-1.96,-1.30,-3.13,3.91
18.505,-1.76,-1.14,-4.10,4.60
18.515,-1.83,-0.46,-5.80,6.10
18.525,-2.13,0.24,-7.79,8.08
18.535,-2.30,-0.32,-8.42,8.74
18.545,-1.92,-1.88,-7.51,7.97
18.555,-1.05,-3.04,-6.79,7.51
18.565,-0.38,-4.02,-6.97,8.06
18.575,0.33,-5.41,-7.01,8.86
18.585,1.43,-6.92,-6.50,9.60
18.595,1.48,-7.58,-6.80,10.29
18.605,1.21,-6.62,-6.32,9.23
18.615,1.11,-4.62,-4.46,6.52
18.625,1.47,-3.12,-1.37,3.71
18.635,2.13,-2.16,1.57,3.42
18.646,2.71,-1.85,1.81,3.75
18.656,2.59,-1.32,1.72,3.38
18.666,1.90,-1.49,1.94,3.10
18.676,1.00,-2.14,2.45,3.40
18.686,0.24,-2.82,3.71,4.67
18.696,-0.43,-3.52,5.27,6.35
18.706,-1.10,-4.16,6.69,7.96
18.716,-1.55,-4.64,6.55,8.18
18.726,-2.28,-4.92,5.51,7.73
18.736,-3.10,-4.35,4.55,7.02
18.746,-3.75,-3.60,3.17,6.09
18.756,-4.02,-3.05,-0.41,5.06
18.767,-2.65,-1.19,-1.34,3.20
18.777,-1.45,0.57,0.53,1.64
18.787,-1.27,1.64,2.50,3.25
18.797,-1.17,2.80,4.10,5.10
18.807,-1.32,3.85,5.62,6.94
18.817,-1.12,4.50,4.73,6.62
18.827,-0.52,4.65,2.88,5.49
18.837,0.13,4.43,1.68,4.74
18.847,0.42,4.17,2.41,4.84
18.857,0.27,3.91,3.58,5.31
18.867,0.17,3.57,4.42,5.69
18.877,0.22,3.30,5.27,6.22
18.887,0.33,3.07,6.07,6.80
18.897,0.29,2.86,6.25,6.88
18.907,0.27,2.77,6.32,6.90
18.917,0.26,2.62,6.32,6.84
18.928,0.21,2.49,6.01,6.51
18.937,0.18,2.49,5.46,6.01
18.948,0.34,2.63,5.01,5.67
18.958,0.57,2.84,4.96,5.74
18.968,0.84,3.01,5.15,6.02
18.978,1.01,3.09,5.33,6.24
18.988,1.03,3.11,5.23,6.17
18.998,1.05,3.14,4.83,5.86
19.008,1.11,3.03,4.27,5.35
19.018,1.18,2.64,3.43,4.49
19.028,1.34,1.81,2.03,3.04
19.038,1.76,0.39,-0.49,1.87
19.048,2.47,-1.96,-7.56,8.19
19.058,2.76,-7.74,-26.89,28.12
19.069,1.08,-15.34,-39.23,42.14
19.079,0.41,-17.64,-26.38,31.74
19.089,-1.86,-14.38,-8.23,16.67
19.099,-3.89,-8.13,1.79,9.19
19.109,-3.43,-2.62,3.98,5.87
19.119,-2.07,0.85,3.43,4.10
19.129,-0.80,3.70,2.26,4.41
19.139,-0.20,6.48,1.12,6.58
19.149,-0.20,8.35,1.52,8.49
19.159,-1.88,7.39,4.28,8.74
19.169,-5.80,3.83,7.93,10.55
19.179,-10.30,-0.31,10.18,14.49
19.189,-13.73,-3.52,10.61,17.71
19.199,-14.66,-4.28,6.79,16.71
19.209,-12.55,-4.02,-8.36,15.61
19.220,-3.92,-0.85,-2.58,4.77
19.230,-0.85,1.54,4.77,5.08
19.240,0.51,3.01,6.43,7.11
19.250,1.37,3.82,6.04,7.28
19.260,1.67,3.73,5.71,7.02
19.270,1.69,2.45,5.66,6.40
19.280,1.50,0.15,5.49,5.69
19.290,1.40,-2.74,5.79,6.56
19.300,1.23,-5.46,6.52,8.60
19.310,1.17,-6.66,6.23,9.19
19.320,1.31,-6.52,5.30,8.50
19.330,1.94,-5.55,4.31,7.29
19.340,2.54,-4.13,3.44,5.94
19.350,3.00,-2.54,2.61,4.72
19.361,3.56,-0.93,2.06,4.22
19.370,4.04,0.50,1.91,4.49
19.381,4.13,1.58,1.68,4.73
19.391,3.96,2.20,1.43,4.75
19.401,3.85,2.56,1.15,4.77
19.411,3.85,2.80,0.89,4.85
19.421,4.02,2.91,0.73,5.02
19.431,4.27,2.78,0.62,5.13
19.441,4.37,2.31,0.52,4.97
19.451,4.28,1.52,0.46,4.56
19.461,4.20,0.46,0.38,4.24
19.471,4.26,-0.68,-0.26,4.32
19.481,4.28,-1.56,-1.22,4.72
19.491,3.94,-2.07,-2.24,4.98
19.501,2.55,-2.16,-4.08,5.27
19.511,0.74,-1.87,-5.84,6.17
19.521,0.57,-1.37,-5.97,6.15
19.532,1.51,-0.94,-4.96,5.27
19.542,1.65,-0.40,-4.18,4.51
19.552,1.10,-0.06,-3.80,3.95
19.562,0.35,-0.11,-3.41,3.43
19.572,-0.42,-0.48,-3.03,3.10
19.582,-1.00,-0.95,-2.87,3.19
19.592,-1.20,-1.51,-2.81,3.41
19.602,-1.00,-1.96,-2.75,3.52
19.612,-0.91,-2.23,-2.60,3.55
19.622,-1.13,-2.42,-2.25,3.49
19.632,-1.28,-2.33,-1.88,3.25
19.642,-1.10,-1.81,-1.78,2.76
19.652,-0.93,-1.02,-1.89,2.34
19.663,-1.03,-0.75,-2.10,2.45
19.672,-1.59,-0.68,-2.30,2.88
19.683,-2.20,-0.56,-2.64,3.48
19.693,-2.70,-0.45,-3.47,4.42
19.703,-3.04,-0.46,-5.59,6.38
19.713,-3.34,-0.93,-9.35,9.98
19.723,-2.98,-1.93,-12.13,12.64
19.733,-2.19,-2.65,-11.96,12.45
19.743,-1.49,-3.52,-10.08,10.78
19.753,0.10,-5.18,-6.95,8.67
19.763,1.86,-6.68,-3.69,7.85
19.773,2.07,-7.60,-2.47,8.25
19.783,1.82,-6.94,-1.41,7.31
19.793,1.84,-5.01,-0.58,5.37
19.803,1.67,-3.36,0.66,3.81
19.813,1.91,-2.67,1.08,3.45
19.824,2.18,-2.31,1.01,3.34
19.834,1.76,-2.31,1.40,3.22
19.844,0.99,-2.85,1.81,3.52
19.854,-0.02,-3.45,2.76,4.42
19.864,-0.76,-3.96,4.19,5.82
19.874,-1.51,-4.21,5.69,7.24
19.884,-2.27,-4.19,6.14,7.77
19.894,-2.77,-4.04,5.56,7.41
19.904,-3.33,-3.75,5.19,7.22
19.914,-3.88,-3.06,4.59,6.74
19.924,-4.13,-2.31,2.25,5.24
19.934,-3.80,-1.26,-0.34,4.01
19.944,-2.93,0.41,0.36,2.98
19.955,-2.31,1.70,2.13,3.57
19.965,-1.98,2.76,4.19,5.39
19.975,-2.21,3.82,6.15,7.57
19.985,-1.26,4.33,4.83,6.61
19.995,-0.34,4.76,2.65,5.46
20.005,0.28,4.81,1.38,5.01
20.015,0.31,4.49,1.79,4.85
20.025,0.35,4.32,3.45,5.54
20.035,0.43,4.10,4.76,6.30
20.045,0.46,3.86,5.79,6.98
20.055,0.51,3.61,6.43,7.39
20.065,0.58,3.38,6.85,7.66
20.075,0.65,3.14,7.05,7.75
20.085,0.64,2.92,6.95,7.57
20.095,0.46,2.70,6.36,6.93
20.105,0.26,2.61,5.66,6.24
20.116,0.25,2.73,5.37,6.03
20.126,0.51,2.91,5.51,6.25
20.136,0.85,3.09,5.83,6.65
20.146,1.08,3.14,5.91,6.78
20.156,1.10,3.11,5.62,6.52
20.166,1.26,2.97,5.04,5.99
20.176,1.50,2.60,4.28,5.22
20.186,1.71,1.87,3.15,4.05
20.196,1.98,0.72,1.30,2.48
20.206,2.58,-1.10,-2.97,4.08
20.216,4.14,-5.03,-17.92,19.07
20.226,3.64,-12.51,-39.22,41.33
20.237,2.49,-16.11,-32.42,36.29
20.246,1.90,-14.55,-14.33,20.51
20.257,-1.07,-9.91,-1.82,10.13
20.267,-3.99,-4.74,3.96,7.35
20.277,-4.01,-1.30,3.57,5.52
20.287,-2.76,1.23,1.81,3.52
20.297,-1.59,3.69,-0.58,4.06
20.307,-1.34,6.41,-2.01,6.85
20.317,-1.62,8.08,-1.04,8.31
20.327,-2.89,7.08,3.20,8.29
20.337,-6.03,3.48,8.61,11.07
20.347,-9.87,-0.43,10.65,14.53
20.357,-12.44,-3.17,10.62,16.66
20.367,-12.79,-3.89,8.71,15.95
20.377,-10.40,-4.08,-1.05,11.23
20.387,-4.48,-2.65,-1.69,5.47
20.397,-1.69,0.03,4.25,4.58
20.407,-0.77,1.81,5.09,5.45
20.418,-0.03,2.75,4.16,4.99
20.428,0.50,3.01,3.52,4.66
20.438,0.65,2.19,3.61,4.27
20.448,0.75,0.23,4.16,4.24
20.458,0.81,-2.21,4.68,5.24
20.468,0.46,-4.42,4.99,6.68
20.478,0.15,-5.34,4.60,7.05
20.488,0.47,-5.15,4.17,6.64
20.498,1.21,-4.09,3.70,5.65
20.508,2.12,-2.83,3.26,4.81
20.518,2.73,-1.47,2.77,4.15
20.528,3.12,-0.12,2.44,3.96
20.538,3.36,0.98,2.27,4.17
20.548,3.45,1.75,2.10,4.41
20.559,3.51,2.21,1.84,4.54
20.569,3.56,2.56,1.51,4.64
20.579,3.65,2.78,1.23,4.75
20.589,3.74,2.78,1.06,4.78
20.599,3.82,2.54,0.90,4.68
20.609,3.89,2.00,0.65,4.42
20.619,3.80,1.26,0.24,4.01
20.629,3.64,0.44,-0.27,3.68
20.639,3.42,-0.35,-0.77,3.52
20.649,3.13,-1.03,-1.22,3.51
20.659,2.72,-1.52,-1.56,3.48
20.669,2.13,-1.60,-1.93,3.29
20.679,1.11,-1.01,-3.14,3.48
20.690,0.34,-0.44,-4.15,4.19
20.700,0.73,-0.34,-3.97,4.05
20.710,1.37,-0.28,-3.37,3.65
20.720,1.40,-0.15,-3.08,3.39
20.730,1.04,-0.10,-2.96,3.14
20.740,0.52,-0.32,-2.97,3.03
20.750,-0.03,-0.76,-2.80,2.90
20.760,-0.44,-1.36,-2.64,3.00
20.770,-0.79,-2.06,-2.56,3.38
20.780,-0.73,-2.46,-2.64,3.68
20.790,-0.56,-2.62,-2.61,3.74
20.800,-0.65,-2.44,-2.47,3.53
20.810,-0.66,-1.85,-2.45,3.14
20.820,-0.77,-1.20,-2.64,3.00
20.830,-1.14,-0.71,-3.16,3.43
20.841,-1.85,-0.40,-3.94,4.37
20.850,-2.58,-0.22,-5.03,5.66
20.861,-2.97,-0.29,-6.28,6.96
20.871,-2.76,-0.85,-7.01,7.58
20.881,-2.06,-1.67,-6.85,7.35
20.891,-1.11,-2.39,-6.56,7.07
20.901,-0.67,-2.74,-7.15,7.69
20.911,-0.69,-3.29,-7.95,8.63
20.921,-0.76,-4.91,-7.79,9.24
20.931,0.18,-6.45,-6.09,8.87
20.941,1.39,-7.07,-4.25,8.36
20.951,2.26,-6.34,-3.06,7.39
20.961,2.01,-4.78,-2.88,5.94
20.971,2.35,-3.14,-1.33,4.14
20.981,2.36,-1.95,0.46,3.10
20.991,2.64,-1.42,1.32,3.27
21.002,2.05,-1.37,1.13,2.72
21.012,1.45,-1.81,1.14,2.59
21.022,0.84,-2.56,1.74,3.21
21.032,-0.04,-3.43,2.84,4.45
21.042,-0.82,-4.12,4.21,5.95
21.052,-1.74,-4.69,5.47,7.41
21.062,-2.39,-5.05,5.74,8.01
21.072,-2.89,-5.08,5.55,8.06
21.082,-3.42,-4.61,5.38,7.87
21.092,-3.69,-3.71,4.48,6.88
21.102,-4.02,-2.94,1.72,5.27
21.112,-3.60,-1.53,0.13,3.91
21.122,-2.83,0.25,1.00,3.01
21.132,-2.47,1.47,2.50,3.81
21.143,-2.54,2.54,4.10,5.45
21.153,-2.09,3.53,5.02,6.48
21.163,-1.18,4.17,4.13,5.99
21.173,-0.26,4.49,2.10,4.96
21.183,0.61,4.39,0.38,4.45
21.193,0.75,4.15,1.29,4.41
21.203,0.60,4.10,3.08,5.16
21.213,0.51,4.05,4.50,6.08
21.223,0.65,3.98,5.44,6.77
21.233,0.84,3.79,6.05,7.19
21.243,0.85,3.62,6.36,7.36
21.253,0.83,3.45,6.61,7.50
21.263,0.63,3.21,6.80,7.55
21.273,0.18,2.98,6.77,7.39
21.284,-0.24,2.86,6.38,7.00
21.293,-0.34,2.90,5.95,6.62
21.304,-0.11,2.98,5.70,6.43
21.314,0.16,3.10,5.63,6.43
21.324,0.28,3.21,5.73,6.58
21.334,0.36,3.40,5.67,6.62
21.344,0.66,3.59,5.19,6.34
21.354,0.97,3.58,4.55,5.87
21.364,1.16,3.12,3.89,5.12
21.374,1.35,2.16,2.92,3.88
21.384,1.63,0.68,0.77,1.93
21.394,2.86,-1.89,-7.51,8.26
21.404,4.43,-8.77,-32.57,34.02
21.414,2.65,-16.61,-41.53,44.80
21.425,2.01,-17.46,-23.61,29.43
21.434,0.23,-13.26,-6.23,14.65
21.445,-2.87,-6.68,3.36,8.01
21.455,-3.57,-1.65,4.96,6.33
21.465,-2.23,1.32,3.16,4.09
21.475,-1.20,3.72,1.06,4.05
21.485,-1.10,5.72,-1.13,5.93
21.495,-1.53,6.42,-1.41,6.75
21.505,-4.02,4.05,2.55,6.25
21.515,-7.80,0.01,7.59,10.89
21.525,-12.01,-3.55,9.43,15.68
21.535,-14.81,-5.12,9.42,18.28
21.545,-15.18,-4.16,2.04,15.87
21.555,-10.73,-0.83,-4.80,11.78
21.566,-3.69,1.84,2.37,4.76
21.575,-1.39,2.75,6.13,6.86
21.585,0.27,3.50,6.27,7.19
21.596,1.00,3.71,5.37,6.60
21.606,1.20,2.92,4.93,5.86
21.616,1.38,1.24,5.20,5.52
21.626,1.55,-0.94,5.46,5.76
21.636,1.55,-3.17,5.45,6.49
21.646,1.37,-4.90,5.38,7.41
21.656,1.29,-5.68,5.33,7.90
21.666,1.43,-5.54,4.86,7.51
21.676,2.18,-4.62,4.46,6.78
21.686,3.23,-3.43,4.08,6.23
21.696,3.57,-2.03,3.39,5.33
21.706,3.46,-0.59,2.53,4.32
21.716,3.38,0.64,1.89,3.92
21.727,3.45,1.54,1.45,4.04
21.736,3.60,2.22,1.18,4.39
21.747,3.73,2.67,0.95,4.68
21.757,3.88,2.91,0.77,4.91
21.767,4.04,2.93,0.51,5.02
21.777,4.03,2.67,0.24,4.83
21.787,3.88,2.06,-0.05,4.39
21.797,3.69,1.30,-0.35,3.93
21.807,3.54,0.43,-0.60,3.62
21.817,3.48,-0.47,-0.80,3.60
21.827,3.47,-1.26,-1.60,4.02
21.837,3.01,-1.58,-2.96,4.51
21.847,2.36,-1.33,-3.66,4.56
21.857,2.14,-1.11,-3.55,4.29
21.867,2.07,-0.93,-3.11,3.85
21.877,1.56,-0.47,-2.89,3.32
21.888,0.91,-0.17,-2.84,2.99
21.898,0.36,-0.07,-2.95,2.97
21.908,-0.25,-0.21,-3.16,3.17
21.918,-0.79,-0.54,-3.38,3.51
21.928,-1.06,-0.95,-3.55,3.82
21.938,-1.01,-1.44,-3.45,3.88
21.948,-0.82,-1.85,-3.46,4.01
21.958,-0.76,-1.98,-3.43,4.03
21.968,-0.91,-1.86,-3.41,3.99
21.978,-1.19,-1.27,-3.68,4.07
21.988,-1.41,-0.76,-3.90,4.22
21.998,-1.54,-0.80,-3.69,4.08
22.008,-1.73,-0.91,-3.41,3.93
22.018,-2.00,-0.87,-3.29,3.95
22.029,-2.13,-0.80,-3.13,3.86
22.039,-1.85,-0.93,-2.88,3.55
22.049,-1.23,-1.37,-2.76,3.32
22.059,-0.58,-2.03,-2.89,3.58
22.069,-0.22,-2.79,-3.57,4.53
22.079,-0.37,-3.69,-5.23,6.41
22.089,-0.94,-5.06,-7.78,9.33
22.099,-1.18,-6.81,-9.96,12.12
22.109,-0.60,-8.03,-9.80,12.68
22.119,-0.26,-7.52,-7.64,10.73
22.129,-0.55,-5.26,-4.97,7.26
22.139,0.36,-3.52,-3.53,5.00
22.149,1.93,-2.37,-1.24,3.30
22.159,2.65,-1.66,0.58,3.18
22.169,2.77,-1.19,1.37,3.31
22.179,2.60,-1.20,1.76,3.36
22.190,2.48,-1.55,2.17,3.64
22.200,2.06,-1.89,2.96,4.08
22.210,0.40,-2.57,3.80,4.60
22.220,-1.05,-3.29,4.98,6.06
22.230,-1.94,-4.03,6.37,7.78
22.240,-2.36,-4.51,6.86,8.54
22.250,-2.36,-4.66,6.27,8.15
22.260,-2.50,-4.24,5.61,7.46
22.270,-2.72,-3.24,4.71,6.33
22.280,-2.76,-1.98,3.01,4.54
22.290,-2.59,-0.63,1.42,3.03
22.300,-2.44,0.84,1.94,3.23
22.310,-1.84,2.02,2.22,3.52
22.320,-1.71,2.91,2.43,4.16
22.330,-2.05,3.40,2.09,4.49
22.340,-1.55,3.67,0.38,4.00
22.351,-0.65,3.52,-0.58,3.62
22.361,-0.41,3.38,0.77,3.49
22.371,-0.53,3.15,2.67,4.17
22.381,-0.45,3.14,4.27,5.32
22.391,-0.02,3.20,5.37,6.25
22.401,0.27,3.13,6.09,6.85
22.411,0.34,2.89,6.58,7.19
22.421,0.22,2.60,6.84,7.32
22.431,0.01,2.50,6.86,7.30
22.441,-0.22,2.52,6.47,6.95
22.451,-0.49,2.63,5.52,6.13
22.461,-0.56,2.86,4.55,5.40
22.471,-0.42,3.10,4.20,5.24
22.481,-0.26,3.32,4.42,5.53
22.492,-0.15,3.39,4.67,5.77
22.502,-0.01,3.27,4.80,5.81
22.512,0.12,3.23,4.72,5.72
22.522,0.42,3.34,4.40,5.54
22.532,0.70,3.41,3.98,5.28
22.542,0.80,3.16,3.55,4.82
22.552,0.78,2.53,3.02,4.02
22.562,0.87,1.53,2.09,2.73
22.572,1.26,0.01,-0.06,1.26
22.582,2.22,-2.44,-6.73,7.49
22.592,3.23,-8.08,-25.06,26.53
22.603,1.79,-15.01,-35.24,38.35
22.613,1.33,-16.56,-24.03,29.21
22.622,-0.12,-12.69,-8.65,15.36
22.633,-2.47,-6.40,-0.03,6.86
22.643,-3.42,-1.65,2.17,4.37
22.653,-2.79,1.23,1.79,3.54
22.663,-1.45,3.54,0.80,3.91
22.673,-0.78,6.07,-0.06,6.12
22.683,-0.59,7.87,0.36,7.90
22.693,-1.66,6.92,2.82,7.65
22.703,-4.59,3.53,5.98,8.33
22.713,-8.07,-0.51,7.79,11.22
22.723,-11.29,-4.00,8.44,14.65
22.733,-12.60,-5.85,8.03,16.04
22.743,-10.92,-5.58,4.52,13.07
22.753,-6.34,-4.65,-4.91,9.27
22.763,-2.07,-1.32,-0.12,2.46
22.773,-1.13,1.18,4.04,4.36
22.784,-0.42,2.93,3.69,4.73
22.794,0.22,3.88,2.96,4.88
22.804,0.76,4.04,2.77,4.96
22.814,1.04,3.35,2.72,4.43
22.824,1.01,1.77,2.76,3.43
22.834,0.87,-0.43,3.02,3.17
22.844,0.71,-2.26,3.37,4.12
22.854,0.73,-3.27,3.19,4.62
22.864,1.06,-3.44,2.68,4.49
22.874,1.58,-2.87,2.34,4.02
22.884,2.27,-2.11,2.39,3.91
22.894,2.96,-1.28,2.50,4.08
22.904,3.09,-0.41,2.25,3.85
22.915,3.01,0.31,2.03,3.65
22.924,3.13,0.84,1.95,3.79
22.935,3.25,1.25,1.85,3.94
22.945,3.33,1.55,1.72,4.06
22.955,3.40,1.72,1.61,4.13
22.965,3.42,1.72,1.49,4.11
22.975,3.39,1.45,1.26,3.89
22.985,3.27,0.91,0.88,3.51
22.995,3.05,0.37,0.48,3.11
23.005,2.84,-0.06,0.12,2.84
23.015,2.63,-0.33,-0.18,2.66
23.025,2.46,-0.44,-0.44,2.54
23.035,2.28,-0.36,-0.69,2.41
23.045,2.08,-0.13,-0.91,2.27
23.055,1.75,0.16,-1.05,2.05
23.065,1.49,0.43,-1.17,1.94
23.076,1.29,0.68,-1.33,1.97
23.086,1.02,0.76,-1.50,1.97
23.096,0.69,0.61,-1.62,1.87
23.106,0.31,0.28,-1.70,1.75
23.116,-0.06,-0.16,-1.72,1.73
23.126,-0.38,-0.61,-1.79,1.93
23.136,-0.75,-1.01,-1.75,2.15
23.146,-1.14,-1.44,-1.67,2.48
23.156,-1.53,-1.86,-1.67,2.93
23.166,-1.98,-2.17,-1.97,3.54
23.176,-2.56,-2.10,-2.84,4.37
23.186,-2.94,-1.77,-4.82,5.92
23.196,-3.02,-1.57,-7.71,8.42
23.206,-3.08,-1.27,-10.04,10.58
23.216,-2.83,-0.95,-9.91,10.35
23.226,-1.92,-0.93,-8.05,8.33
23.237,-1.26,-1.29,-5.90,6.17
23.247,-0.96,-1.96,-4.30,4.82
23.257,-0.61,-2.67,-3.54,4.47
23.267,-0.11,-3.29,-3.39,4.73
23.277,0.48,-3.73,-3.77,5.32
23.287,1.02,-4.45,-4.89,6.69
23.297,1.22,-6.09,-7.47,9.72
23.307,0.97,-7.86,-11.60,14.04
23.317,0.64,-7.45,-12.45,14.52
23.327,1.01,-4.47,-7.93,9.16
23.337,1.65,-2.90,-2.24,4.02
23.347,1.97,-2.77,0.07,3.40
23.357,3.09,-1.73,1.86,4.00
23.367,3.33,-1.51,2.53,4.45
23.378,2.44,-2.22,2.35,4.05
23.388,1.72,-2.82,2.86,4.37
23.398,0.69,-3.64,4.12,5.54
23.408,-0.40,-4.50,6.10,7.59
23.418,-0.94,-5.02,7.34,8.94
23.428,-1.51,-5.47,6.54,8.66
23.438,-2.59,-5.87,6.12,8.86
23.448,-3.93,-5.54,6.22,9.21
23.458,-4.40,-4.54,5.84,8.61
23.468,-4.09,-3.19,3.40,6.21
23.478,-3.56,-1.29,0.81,3.87
23.488,-3.03,0.37,0.44,3.09
23.498,-2.81,1.66,1.59,3.63
23.508,-3.08,2.80,2.56,4.89
23.518,-3.35,3.79,2.49,5.64
23.528,-2.85,4.47,-0.31,5.31
23.539,-1.60,4.40,-1.74,5.00
23.549,-0.91,3.89,0.29,4.01
23.559,-0.48,3.69,2.60,4.54
23.569,0.02,3.78,4.51,5.89
23.579,0.22,3.76,5.58,6.73
23.589,0.08,3.55,5.99,6.96
23.599,0.12,3.31,6.17,7.00
23.609,0.03,2.95,6.33,6.99
23.619,-0.17,2.62,6.70,7.20
23.629,-0.58,2.61,7.07,7.56
23.639,-0.91,2.93,6.71,7.38
23.649,-0.73,3.29,6.01,6.89
23.660,-0.20,3.50,5.27,6.33
23.670,0.48,3.57,4.79,5.99
23.680,1.14,3.50,4.75,6.01
23.690,1.50,3.34,4.89,6.11
23.700,1.56,3.19,4.91,6.06
23.710,1.49,3.12,4.75,5.88
23.720,1.50,3.08,4.48,5.63
23.730,1.50,2.84,4.02,5.14
23.740,1.41,2.24,3.35,4.27
23.750,1.36,1.20,2.14,2.80
23.760,1.68,-0.33,-0.15,1.72
23.770,2.88,-2.35,-6.24,7.27
23.780,5.20,-8.25,-28.70,30.32
23.791,2.86,-16.14,-40.60,43.78
23.801,0.50,-16.90,-23.40,28.87
23.810,-1.88,-13.17,-7.21,15.13
23.821,-4.10,-7.11,0.53,8.22
23.831,-4.11,-2.19,2.45,5.26
23.841,-2.50,0.46,1.79,3.11
23.851,-1.17,2.99,0.32,3.23
23.861,-0.96,5.85,-0.46,5.94
23.871,-1.09,7.05,1.21,7.24
23.881,-3.30,4.35,5.51,7.76
23.891,-7.76,0.03,8.61,11.59
23.901,-12.01,-3.40,9.89,15.92
23.911,-14.32,-5.04,9.60,17.96
23.921,-12.89,-4.14,7.25,15.36
23.931,-8.22,-2.21,-1.67,8.67
23.941,-3.23,0.14,-1.34,3.50
23.951,-1.93,1.52,4.01,4.70
23.962,-1.19,2.45,4.61,5.35
23.972,-0.73,2.90,3.55,4.64
23.982,-0.47,2.82,3.08,4.20
23.992,-0.16,2.19,3.17,3.86
24.002,0.29,1.10,3.48,3.66
24.012,0.59,-0.42,3.94,4.00
24.022,0.42,-1.94,3.92,4.39
24.032,0.38,-2.66,3.68,4.55
24.042,0.80,-2.73,3.30,4.36
24.052,1.46,-2.53,3.10,4.26
24.062,2.24,-2.09,3.14,4.39
24.072,2.74,-1.57,2.93,4.31
24.082,2.86,-1.00,2.60,3.99
24.092,3.23,-0.43,2.23,3.95
24.103,3.39,0.09,1.99,3.94
24.113,3.55,0.57,1.81,4.03
24.123,3.76,1.02,1.70,4.25
24.133,4.01,1.41,1.63,4.55
24.143,4.20,1.65,1.64,4.81
24.153,4.33,1.75,1.70,4.97
24.163,4.28,1.60,1.58,4.84
24.173,4.05,1.16,1.20,4.38
24.183,3.79,0.58,0.69,3.90
24.193,3.55,0.03,0.13,3.55
24.203,3.34,-0.37,-0.38,3.38
24.213,3.04,-0.59,-0.79,3.20
24.223,2.59,-0.69,-1.23,2.95
24.233,1.89,-0.72,-1.74,2.67
24.243,0.84,-0.53,-2.88,3.05
24.253,0.19,-0.45,-3.83,3.86
24.264,0.69,-0.54,-3.79,3.89
24.273,1.54,-0.42,-3.31,3.67
24.284,1.81,-0.15,-3.05,3.55
24.294,1.52,0.06,-2.87,3.25
24.304,0.98,0.04,-2.65,2.82
24.314,0.39,-0.30,-2.47,2.51
24.324,-0.07,-0.89,-2.38,2.54
24.334,-0.38,-1.53,-2.41,2.88
24.344,-0.52,-2.04,-2.55,3.30
24.354,-0.54,-2.26,-2.79,3.63
24.364,-0.55,-2.14,-3.06,3.77
24.374,-0.83,-1.77,-3.67,4.16
24.384,-1.49,-1.21,-4.84,5.20
24.394,-2.47,-0.58,-6.34,6.82
24.404,-3.53,-0.07,-7.42,8.22
24.415,-3.99,-0.12,-7.15,8.19
24.425,-3.28,-0.79,-5.61,6.55
24.435,-1.99,-1.59,-4.14,4.86
24.445,-1.00,-2.25,-3.51,4.29
24.455,-0.49,-2.79,-3.73,4.69
24.465,-0.59,-3.47,-4.74,5.90
24.475,-1.05,-4.82,-6.21,7.93
24.485,-1.31,-6.63,-7.73,10.27
24.495,-1.15,-8.08,-8.57,11.83
24.505,-0.85,-7.63,-8.45,11.42
24.515,0.26,-5.07,-6.39,8.16
24.525,2.77,-3.36,-2.48,5.01
24.535,4.46,-2.69,0.71,5.26
24.545,3.93,-2.41,1.84,4.96
24.555,2.88,-2.19,2.04,4.16
24.566,2.02,-2.08,2.26,3.67
24.576,1.34,-2.39,2.46,3.68
24.586,0.59,-2.91,2.94,4.18
24.596,-0.50,-3.64,4.56,5.86
24.606,-1.63,-4.16,6.03,7.51
24.616,-2.47,-4.57,6.52,8.34
24.626,-2.96,-4.82,6.40,8.54
24.636,-3.49,-4.51,5.88,8.19
24.646,-4.04,-3.61,5.04,7.40
24.656,-3.90,-2.57,2.81,5.45
24.666,-2.58,-0.97,0.91,2.90
24.676,-1.53,0.67,0.90,1.90
24.686,-1.58,1.73,2.08,3.14
24.697,-1.62,2.79,3.25,4.58
24.706,-1.52,3.67,3.82,5.51
24.716,-1.26,4.22,3.90,5.88
24.727,-0.71,4.22,2.87,5.15
24.737,0.32,3.96,0.39,3.99
24.747,0.70,3.59,-0.15,3.66
24.757,0.40,3.30,1.52,3.65
24.767,-0.06,3.15,3.18,4.47
24.777,-0.14,3.05,4.63,5.55
24.787,0.19,2.81,5.61,6.28
24.797,0.47,2.46,5.95,6.45
24.807,0.55,2.17,5.98,6.39
24.817,0.23,1.94,5.94,6.25
24.827,-0.03,1.87,6.00,6.29
24.837,-0.21,2.04,5.96,6.31
24.847,-0.28,2.37,5.58,6.07
24.857,-0.01,2.80,5.10,5.82
24.868,0.38,3.07,4.76,5.68
24.878,0.62,3.06,4.66,5.61
24.888,0.67,2.89,4.61,5.48
24.898,0.84,2.68,4.44,5.26
24.908,1.09,2.64,4.15,5.04
24.918,1.20,2.63,3.72,4.71
24.928,1.20,2.36,3.23,4.18
24.938,1.14,1.71,2.67,3.37
24.948,0.99,0.74,1.58,2.01
24.958,1.11,-0.52,-0.99,1.57
24.968,2.21,-2.72,-8.44,9.14
24.978,4.26,-7.82,-26.92,28.35
24.989,2.81,-15.38,-38.36,41.43
24.999,-1.01,-17.94,-25.99,31.60
25.009,-4.21,-12.87,-6.37,14.97
25.019,-4.10,-6.00,1.13,7.36
25.029,-2.98,-1.34,2.37,4.04
25.039,-1.27,2.07,2.46,3.46
25.049,-0.07,4.96,1.64,5.23
25.059,0.38,7.47,1.10,7.56
25.069,0.13,7.99,2.35,8.33
25.079,-2.65,5.43,5.42,8.12
25.089,-6.84,1.37,8.10,10.69
25.099,-10.84,-2.70,9.72,14.81
25.109,-12.91,-5.33,9.61,16.95
25.119,-12.70,-6.13,2.93,14.40
25.129,-8.24,-5.27,-6.71,11.85
25.139,-1.80,-1.01,1.82,2.76
25.150,-0.25,1.62,5.42,5.66
25.159,0.60,3.20,4.89,5.88
25.170,1.10,3.98,3.96,5.72
25.180,1.18,3.80,3.45,5.27
25.190,1.06,2.60,3.32,4.36
25.200,1.23,0.73,3.37,3.66
25.210,1.08,-1.81,3.77,4.32
25.220,0.98,-3.93,4.59,6.13
25.230,1.13,-5.09,4.90,7.16
25.240,1.96,-5.33,4.94,7.53
25.250,2.72,-4.78,4.96,7.40
25.260,3.05,-3.76,4.31,6.48
25.270,3.18,-2.36,3.64,5.38
25.280,3.27,-0.90,3.13,4.62
25.290,3.31,0.37,2.73,4.30
25.300,3.33,1.46,2.34,4.32
25.311,3.49,2.30,2.02,4.65
25.321,3.67,2.95,1.72,5.02
25.331,3.78,3.35,1.47,5.26
25.341,3.84,3.41,1.17,5.27
25.351,3.77,2.93,0.82,4.85
25.361,3.47,2.00,0.44,4.03
25.371,3.10,1.01,0.11,3.26
25.381,2.78,0.14,-0.22,2.79
25.391,2.48,-0.62,-0.49,2.61
25.401,2.20,-1.15,-0.73,2.59
25.411,1.86,-1.45,-1.00,2.56
25.421,1.44,-1.48,-1.22,2.39
25.431,0.90,-1.30,-1.45,2.15
25.441,0.15,-0.94,-1.85,2.08
25.451,-1.12,-0.44,-3.07,3.30
25.462,-1.78,-0.21,-3.61,4.03
25.472,-1.34,-0.28,-3.31,3.58
25.482,-0.62,-0.38,-2.72,2.81
25.492,-0.37,-0.47,-2.13,2.21
25.502,-0.51,-0.52,-1.80,1.94
25.512,-0.72,-0.54,-1.73,1.95
25.522,-1.02,-0.55,-1.71,2.06
25.532,-1.28,-0.46,-1.78,2.24
25.542,-1.54,-0.36,-1.94,2.50
25.552,-1.66,-0.26,-2.25,2.81
25.562,-1.53,-0.27,-2.69,3.11
25.572,-1.18,-0.58,-3.09,3.36
25.582,-0.86,-0.77,-3.44,3.63
25.593,-0.65,-0.57,-3.94,4.04
25.602,-0.89,-0.12,-4.74,4.82
25.613,-1.53,-0.07,-5.46,5.67
25.623,-1.80,-1.03,-5.43,5.81
25.633,-1.29,-2.12,-4.92,5.51
25.643,-0.55,-2.99,-4.61,5.52
25.653,0.09,-3.95,-4.71,6.15
25.663,0.68,-5.33,-5.19,7.47
25.673,1.25,-6.97,-5.69,9.09
25.683,1.65,-8.23,-6.11,10.38
25.693,1.63,-8.40,-6.33,10.64
25.703,1.13,-6.38,-5.92,8.78
25.713,0.94,-3.78,-4.37,5.85
25.723,1.57,-2.58,-1.91,3.57
25.733,2.27,-1.54,0.30,2.76
25.743,2.30,-0.53,1.65,2.88
25.754,2.07,0.15,1.68,2.67
25.764,1.89,0.66,1.46,2.48
25.774,1.56,0.71,1.62,2.36
25.784,1.05,0.20,2.16,2.41
25.794,0.18,-0.70,3.06,3.14
25.804,-1.00,-1.64,3.95,4.40
25.814,-2.14,-2.73,4.57,5.74
25.824,-2.83,-3.71,4.58,6.54
25.834,-3.69,-4.41,3.98,7.00
25.844,-5.14,-4.93,2.83,7.67
25.854,-5.92,-4.49,1.66,7.62
25.864,-5.14,-2.87,1.53,6.08
25.874,-3.91,-0.77,2.30,4.60
25.884,-3.49,0.90,3.51,5.03
25.895,-3.32,2.17,4.17,5.75
25.905,-2.98,3.00,4.22,5.97
25.915,-2.44,3.83,4.22,6.20
25.925,-1.22,4.19,3.65,5.69
25.935,-0.52,3.97,2.84,4.91
25.945,-0.46,3.65,2.29,4.34
25.955,-0.27,3.24,1.86,3.75
25.965,0.15,2.84,1.87,3.40
25.975,0.51,2.40,2.49,3.50
25.985,0.79,2.09,3.30,3.99
25.995,1.20,1.84,3.95,4.52
26.005,1.66,1.60,4.53,5.08
26.015,1.87,1.36,4.85,5.38
26.025,1.73,1.11,4.84,5.26
26.036,1.50,0.93,4.92,5.22
26.046,1.23,0.87,5.04,5.26
26.056,0.75,1.08,4.93,5.11
26.066,0.30,1.57,4.61,4.88
26.076,0.25,2.09,4.37,4.85
26.086,0.35,2.46,4.38,5.04
26.096,0.35,2.68,4.46,5.22
26.106,0.39,2.83,4.45,5.29
26.116,0.47,2.85,4.29,5.17
26.126,0.52,2.74,3.98,4.86
26.136,0.51,2.40,3.52,4.29
26.146,0.47,1.85,2.87,3.44
26.156,0.47,1.02,1.84,2.16
26.166,0.70,-0.05,0.00,0.70
26.176,1.61,-1.60,-4.17,4.75
26.186,4.98,-5.56,-20.34,21.66
26.197,6.39,-12.78,-38.41,40.98
26.207,2.22,-15.27,-27.27,31.33
26.217,-1.70,-13.53,-11.02,17.53
26.227,-4.11,-8.77,-1.16,9.75
26.237,-3.73,-3.75,2.36,5.78
26.247,-2.87,-0.52,3.06,4.23
26.257,-1.83,2.42,2.79,4.12
26.267,-1.09,5.63,2.48,6.25
26.277,-0.72,8.06,3.22,8.71
26.287,-0.63,8.92,5.18,10.34
26.297,-1.70,8.05,6.73,10.63
26.307,-3.90,6.07,7.80,10.63
26.317,-6.14,2.94,8.27,10.71
26.327,-8.40,-0.50,7.75,11.44
26.337,-9.61,-3.52,6.50,12.12
26.347,-11.42,-7.74,-5.26,14.77
26.358,-9.28,-10.81,-12.88,19.20
26.368,-3.43,-6.50,-0.69,7.38
26.378,-1.36,-2.36,3.42,4.37
26.388,-0.21,0.85,4.24,4.33
26.398,1.08,3.17,4.15,5.34
26.408,2.42,4.72,3.14,6.16
26.418,2.70,5.12,2.39,6.26
26.428,2.34,4.27,2.35,5.40
26.438,1.62,2.39,2.71,3.96
26.448,0.94,-0.05,3.06,3.20
26.458,0.90,-2.28,3.39,4.19
26.468,1.95,-3.55,3.58,5.40
26.479,3.43,-3.62,3.33,5.99
26.488,3.94,-3.40,2.71,5.87
26.499,3.95,-3.12,2.12,5.46
26.508,4.02,-2.74,1.78,5.18
26.519,3.92,-2.19,1.61,4.77
26.529,3.56,-1.50,1.37,4.10
26.539,3.33,-0.70,1.14,3.58
26.549,3.03,0.01,0.78,3.12
26.559,2.70,0.66,0.45,2.81
26.569,2.55,1.29,0.18,2.87
26.579,2.55,1.63,-0.11,3.03
26.589,2.49,1.41,-0.41,2.89
26.599,2.50,1.08,-0.60,2.80
26.609,2.50,0.82,-0.78,2.74
26.619,2.33,0.52,-0.96,2.58
26.630,2.05,0.16,-1.06,2.31
26.640,1.76,-0.00,-1.14,2.10
26.650,1.46,-0.01,-1.19,1.88
26.660,1.11,0.06,-1.29,1.70
26.670,0.72,0.37,-1.49,1.70
26.680,0.24,0.58,-1.83,1.94
26.690,-0.21,0.52,-2.06,2.13
26.700,-0.47,0.28,-2.08,2.15
26.710,-0.49,0.10,-1.96,2.03
26.720,-0.55,0.07,-1.77,1.85
26.730,-0.68,0.20,-1.67,1.81
26.740,-0.75,0.46,-1.62,1.84
26.750,-0.78,0.66,-1.59,1.89
26.760,-0.89,0.59,-1.52,1.86
26.770,-1.02,0.29,-1.40,1.76
26.781,-1.09,0.05,-1.30,1.70
26.790,-1.02,-0.12,-1.21,1.59
26.801,-0.95,-0.25,-1.12,1.49
26.811,-0.94,-0.31,-1.06,1.45
26.821,-0.93,-0.27,-1.01,1.40
26.831,-0.92,-0.14,-1.01,1.37
26.841,-0.82,-0.13,-1.05,1.34
26.851,-0.63,-0.33,-1.16,1.36
26.861,-0.44,-0.33,-1.35,1.45
26.871,-0.45,-0.18,-1.47,1.55
26.881,-0.64,-0.09,-1.58,1.71
26.891,-0.78,-0.36,-1.65,1.86
26.901,-0.64,-0.95,-1.70,2.05
26.911,-0.42,-1.67,-1.75,2.45
26.921,-0.18,-2.30,-1.82,2.94
26.932,0.01,-2.95,-1.89,3.50
26.942,0.11,-3.75,-1.94,4.22
26.952,0.27,-4.54,-1.92,4.94
26.962,0.57,-5.01,-1.75,5.34
26.972,0.19,-5.79,-1.44,5.97
26.982,-0.34,-6.00,-1.97,6.33
26.992,-0.37,-5.05,-2.20,5.52
27.002,-0.22,-3.11,-2.75,4.15
27.012,-0.66,-0.98,-5.21,5.34
27.022,-2.49,0.92,-10.40,10.73
27.032,-3.94,1.95,-13.14,13.86
27.042,-2.76,1.70,-9.08,9.64
27.052,-0.52,1.22,-3.69,3.92
27.062,0.94,1.18,-0.09,1.51
27.072,1.09,0.90,2.04,2.48
27.083,0.44,-0.21,3.55,3.58
27.093,-0.03,-1.44,5.14,5.34
27.103,-0.19,-2.71,6.48,7.02
27.113,-0.48,-3.88,7.13,8.14
27.123,-0.13,-4.37,6.46,7.80
27.133,0.20,-4.12,5.71,7.04
27.143,0.15,-3.50,5.07,6.17
27.153,-0.27,-2.76,4.67,5.43
27.163,-0.74,-1.93,4.56,5.01
27.173,-0.92,-0.96,4.54,4.73
27.183,-1.26,-0.11,4.07,4.27
27.193,-1.36,0.60,3.51,3.81
27.203,-1.51,1.30,2.74,3.39
27.213,-1.46,1.75,1.83,2.92
27.224,-1.25,1.85,1.09,2.48
27.233,-0.77,1.77,1.60,2.51
27.244,-0.19,1.67,2.65,3.14
27.254,0.25,1.49,3.29,3.62
27.264,0.84,1.50,3.66,4.05
27.274,1.50,1.51,3.63,4.20
27.284,2.36,1.34,3.08,4.10
27.294,3.26,1.41,2.82,4.53
27.304,3.35,1.65,3.35,5.02
27.314,2.57,1.65,3.81,4.88
27.324,1.80,1.62,3.90,4.59
27.334,1.28,2.00,4.05,4.69
27.344,0.80,2.27,4.24,4.88
27.354,0.38,2.28,4.20,4.79
27.364,-0.07,1.84,3.88,4.29
27.374,-0.42,1.19,3.39,3.61
27.385,-0.75,0.37,2.83,2.95
27.395,-0.85,-0.38,2.26,2.45
27.405,0.17,-0.31,2.01,2.04
27.415,2.72,0.72,2.06,3.49
27.425,3.46,0.78,2.06,4.10
27.435,3.37,0.87,1.88,3.95
27.445,2.17,0.39,1.45,2.64
27.455,0.62,-0.19,1.02,1.21
27.465,-0.08,-0.31,-0.02,0.32
27.475,-0.30,-0.71,-1.69,1.86
27.485,0.03,-1.63,-5.57,5.80
27.495,0.49,-3.49,-11.47,12.00
27.506,-0.34,-5.05,-14.66,15.51
27.515,-1.56,-4.92,-14.30,15.20
27.526,-3.02,-3.43,-10.98,11.89
27.535,-4.81,-1.84,-5.59,7.61
27.546,-5.72,-1.53,-0.18,5.92
27.556,-4.93,-1.28,2.55,5.70
27.566,-2.16,0.38,2.32,3.19
27.576,0.20,1.63,1.92,2.53
27.586,1.03,2.37,1.85,3.18
27.596,0.20,2.83,2.31,3.66
27.606,-1.81,2.25,2.65,3.92
27.616,-3.35,1.77,2.82,4.72
27.626,-4.57,1.16,2.79,5.48
27.636,-5.43,0.21,2.93,6.18
27.646,-6.23,-1.03,3.71,7.32
27.656,-7.55,-3.66,4.04,9.32
27.666,-7.96,-5.82,3.97,10.63
27.676,-6.78,-6.48,3.16,9.90
27.687,-4.54,-5.57,1.34,7.31
27.697,-2.64,-3.65,-0.13,4.51
27.707,-0.20,-1.02,-1.29,1.65
27.717,2.08,1.69,-1.15,2.92
27.727,3.43,3.24,-0.18,4.72
27.737,4.25,4.38,0.85,6.16
27.747,5.25,5.13,1.19,7.44
27.757,6.17,5.74,1.55,8.57
27.767,6.50,5.80,2.57,9.08
27.777,5.99,4.97,3.31,8.45
27.787,4.93,3.65,3.88,7.25
27.797,3.48,1.58,4.43,5.85
27.807,2.15,-1.04,5.07,5.61
27.817,0.47,-4.48,6.02,7.52
27.828,-0.13,-5.60,6.09,8.28
27.837,0.34,-5.26,5.26,7.45
27.848,1.08,-4.88,4.38,6.65
27.858,1.83,-4.73,3.24,6.01
27.868,2.27,-5.01,0.85,5.57
27.878,2.19,-4.31,-5.94,7.66
27.888,1.00,-2.63,-11.21,11.55
27.898,-0.01,-1.48,-8.69,8.81
27.908,-0.22,-0.83,-5.00,5.07
27.918,0.01,0.03,-2.19,2.19
27.928,0.64,0.94,-0.32,1.18
27.938,1.37,1.75,0.70,2.33
27.948,2.07,1.91,1.25,3.08
27.958,2.48,1.34,1.65,3.27
27.968,2.34,0.42,2.06,3.14
27.978,1.78,-0.26,2.47,3.05
27.989,0.95,-0.35,2.89,3.06
27.999,-0.05,-0.06,3.20,3.21
28.009,-1.03,0.08,3.42,3.57
28.019,-1.81,0.11,3.35,3.81
28.029,-2.58,2.37,3.18,4.74
28.039,-3.05,2.99,2.63,5.01
28.049,-1.76,-0.49,1.05,2.11
28.059,-2.00,-2.31,-0.97,3.20
28.069,-2.60,-2.98,-3.62,5.36
28.079,-2.24,-2.59,-6.90,7.70
28.089,-1.34,-1.16,-8.59,8.77
28.099,-1.18,0.43,-7.77,7.87
28.109,-1.73,1.80,-5.69,6.22
28.119,-2.60,2.37,-3.40,4.89
28.130,-3.56,1.79,-1.30,4.19
28.140,-4.31,0.24,-0.14,4.32
28.150,-4.28,-0.55,0.52,4.34
28.160,-3.13,-0.14,1.32,3.40
28.170,-1.57,0.19,2.18,2.69
28.180,-0.15,0.18,2.33,2.34
28.190,0.65,-0.08,2.83,2.90
28.200,0.78,-0.79,3.38,3.56
28.210,0.98,-0.92,4.12,4.33
28.220,1.16,-0.55,4.74,4.91
28.230,0.94,-0.18,4.69,4.79
28.240,1.23,-0.19,4.85,5.01
28.250,1.65,-0.14,4.86,5.14
28.260,1.60,-0.09,4.58,4.86
28.271,1.57,-0.08,4.14,4.43
28.281,1.40,-0.25,3.53,3.80
28.291,1.55,-0.26,2.83,3.24
28.301,2.14,-0.58,2.24,3.15
28.311,2.34,-1.65,1.46,3.22
28.321,2.34,-2.31,1.07,3.45
28.331,2.01,-2.75,1.08,3.57
28.341,1.79,-3.26,1.41,3.97
28.351,1.48,-3.92,1.29,4.39
28.361,1.47,-3.29,1.09,3.76
28.371,1.50,-2.13,0.76,2.71
28.381,1.18,-1.61,0.57,2.08
28.391,0.57,-1.88,0.31,1.99
28.401,-0.32,-2.16,-0.74,2.30
28.411,-0.86,-1.58,-2.19,2.84
28.421,-0.95,-0.95,-3.62,3.86
28.432,-0.85,-0.86,-4.66,4.82
28.442,-0.73,-1.18,-5.17,5.35
28.452,-0.69,-1.80,-5.10,5.45
28.462,-0.69,-2.13,-4.63,5.14
28.472,-0.77,-1.85,-4.01,4.49
28.482,-0.76,-1.04,-3.45,3.68
28.492,-0.70,-0.16,-2.68,2.78
28.502,-0.55,0.18,-1.64,1.74
28.512,-0.59,0.11,-0.66,0.89
28.522,-0.60,-0.09,-0.03,0.60
28.532,-0.80,-0.16,0.14,0.83
28.542,-0.74,-0.13,0.43,0.87
28.552,-0.08,-0.18,0.48,0.52
28.562,0.16,0.81,0.41,0.92
28.573,0.12,1.05,1.06,1.50
28.583,0.30,1.01,1.61,1.93
28.593,0.26,0.89,2.05,2.25
28.603,0.02,0.60,2.80,2.86
28.613,0.10,0.60,3.32,3.38
28.623,0.28,0.78,3.79,3.88
28.633,0.55,0.81,3.96,4.08
28.643,0.67,0.67,3.92,4.03
28.653,0.77,0.32,3.47,3.57
28.663,0.94,-0.07,2.65,2.81
28.673,1.41,-0.12,2.03,2.48
28.683,1.77,-0.13,1.71,2.47
28.693,1.83,-0.45,0.96,2.11
28.703,1.97,-0.79,0.04,2.12
28.713,2.07,-1.62,-0.89,2.78
28.724,2.26,-2.29,-1.57,3.58
28.734,2.38,-2.45,-2.34,4.14
28.744,0.89,-2.15,-5.95,6.39
28.754,-0.81,-1.50,-8.91,9.07
28.764,-0.28,-1.45,-7.01,7.16
28.774,0.75,-1.87,-4.13,4.60
28.784,1.31,-2.44,-1.53,3.17
28.794,1.58,-2.73,0.35,3.17
28.804,1.51,-2.75,1.49,3.47
28.814,0.64,-1.54,2.49,2.99
28.824,0.04,-0.80,2.80,2.91
28.834,-1.52,-1.23,1.87,2.70
28.844,-3.60,-2.27,0.12,4.26
28.854,-4.73,-1.93,-1.20,5.25
28.864,-4.74,-1.13,-2.20,5.34
28.875,-4.74,0.84,-3.81,6.14
28.885,-4.70,2.39,-4.67,7.04
28.895,-4.18,4.03,-4.88,7.59
28.905,-3.46,5.00,-4.53,7.58
28.915,-2.29,4.59,-2.74,5.82
28.925,-1.40,3.12,-0.47,3.46
28.935,0.15,1.57,1.99,2.54
28.945,1.82,1.03,3.67,4.23
28.955,3.22,0.74,4.77,5.80
28.965,2.93,0.14,4.32,5.22
28.975,2.39,-1.01,3.20,4.12
28.985,2.72,-1.20,1.74,3.45
28.995,3.37,-1.49,0.65,3.74
29.005,7.08,-5.83,1.34,9.27
29.016,6.73,-4.76,-1.66,8.41
29.026,5.69,-3.75,-4.48,8.15
29.036,3.93,-2.62,-6.96,8.41
29.046,2.06,-2.16,-8.03,8.57
29.056,0.64,-2.23,-7.26,7.62
29.066,-0.88,-2.60,-6.31,6.88
29.076,-0.40,-3.21,-5.70,6.55
29.086,2.36,-2.99,-5.41,6.62
29.096,4.64,-2.04,-4.59,6.84
29.106,5.49,-1.44,-3.43,6.63
29.116,5.43,-0.86,-1.86,5.80
29.126,5.23,-0.29,0.84,5.31
29.136,4.42,0.15,2.94,5.31
29.146,3.20,0.40,4.40,5.46
29.157,2.06,0.61,5.60,6.00
29.166,1.14,0.57,6.94,7.05
29.177,0.26,0.44,7.76,7.78
29.187,-0.38,0.37,8.59,8.61
29.197,-0.97,0.29,9.28,9.33
29.207,-1.54,0.13,9.43,9.56
29.217,-2.02,0.07,8.68,8.91
29.227,-2.17,0.23,7.40,7.71
29.237,-1.98,0.25,6.22,6.53
29.247,-1.62,0.27,5.04,5.30
29.257,-1.32,0.33,3.84,4.08
29.267,-1.16,0.42,2.89,3.14
29.277,-1.43,0.32,2.16,2.61
29.287,-1.96,0.04,1.46,2.45
29.297,-2.49,-0.31,1.03,2.71
29.307,-2.70,-0.58,0.81,2.87
29.318,-2.77,-0.86,0.50,2.94
29.328,-2.76,-1.12,0.17,2.98
29.338,-2.70,-1.00,0.06,2.88
29.348,-2.81,-1.06,-0.03,3.01
29.358,-3.28,-1.58,-0.14,3.65
29.368,-3.76,-2.16,-0.29,4.34
29.378,-4.07,-2.47,-0.42,4.78
29.388,-4.16,-2.64,-0.54,4.96
29.398,-3.91,-2.75,-0.61,4.82
29.408,-3.34,-2.71,-0.65,4.35
29.418,-2.79,-2.63,-0.72,3.91
29.428,-2.46,-2.78,-0.91,3.82
29.438,-2.20,-3.02,-1.02,3.88
29.448,-1.92,-3.14,-1.01,3.81
29.459,-1.63,-3.21,-0.93,3.72
29.469,2.66,-3.73,7.45,8.74
29.479,0.11,-4.56,1.99,4.98
29.489,-1.10,-3.69,-2.05,4.37
29.499,-0.06,-3.15,-1.02,3.32
29.509,-0.44,-2.87,-2.88,4.09
29.519,-0.70,-2.76,-3.10,4.20
29.529,-0.89,-2.90,-2.59,3.99
29.539,-1.14,-3.38,-2.20,4.20
29.549,-1.13,-3.52,-1.89,4.15
29.559,-0.82,-3.34,-1.72,3.84
29.569,-0.19,-2.91,-1.60,3.33
29.579,0.67,-2.34,-1.35,2.78
29.589,1.28,-1.93,-1.21,2.61
29.599,1.27,-1.88,-1.37,2.65
29.609,0.75,-2.05,-1.65,2.74
29.620,0.18,-2.24,-1.85,2.91
29.630,-0.26,-2.36,-1.92,3.05
29.640,-0.45,-2.15,-1.84,2.87
29.650,-0.53,-1.73,-1.73,2.50
29.660,-0.64,-1.46,-1.71,2.34
29.670,-0.87,-1.47,-1.77,2.46
29.680,-0.83,-1.33,-0.89,1.80
29.690,-0.48,-1.52,0.63,1.71
29.700,-1.58,-1.75,-1.25,2.66
29.710,-1.87,-1.27,-0.30,2.28
29.720,-1.39,-1.50,-0.33,2.07
29.730,1.46,-1.15,0.05,1.86
29.740,2.39,-1.27,0.09,2.71
29.750,2.48,-1.37,0.53,2.89
29.761,2.69,-1.29,0.81,3.09
29.771,1.96,-0.20,1.33,2.38
29.781,0.81,-0.87,0.93,1.51
29.791,1.75,-1.24,0.22,2.16
29.801,1.58,-1.36,-0.13,2.09
29.811,1.84,-1.22,-0.43,2.25
29.821,2.00,-1.27,-0.48,2.42
29.831,1.88,-1.30,0.19,2.29
29.841,1.64,-1.06,1.15,2.27
29.851,0.84,-1.23,1.31,1.98
29.861,0.24,-1.31,1.11,1.73
29.875,-0.12,-1.30,1.09,1.71
29.881,0.02,-1.27,0.90,1.56
29.891,0.22,-1.00,0.50,1.14
29.901,0.56,-0.75,0.08,0.94
29.911,1.04,-0.53,-0.39,1.23
29.922,1.20,-0.41,-0.82,1.51
29.932,1.11,-0.28,-1.05,1.55
29.942,0.86,-0.01,-1.18,1.46
29.952,0.52,0.09,-0.92,1.06
29.962,0.04,0.13,-0.51,0.53
29.972,-0.34,0.06,-0.35,0.50
29.982,-0.13,-0.51,-0.41,0.67
29.992,0.34,-1.21,-0.45,1.33
30.002,0.87,-0.96,-0.04,1.30
30.012,1.16,-0.93,0.34,1.52
30.022,0.91,-1.36,0.40,1.68
30.032,0.57,-1.67,0.56,1.85
30.043,0.31,-1.34,0.81,1.59
30.052,-0.04,-0.58,0.78,0.98
30.063,-0.29,0.12,0.49,0.59
30.073,-0.27,0.32,0.01,0.42
30.083,-0.01,0.77,-0.72,1.05
30.093,-0.01,0.62,-1.23,1.38
30.103,0.12,0.24,-1.40,1.42
30.113,0.40,0.13,-1.34,1.41
30.123,0.56,0.03,-1.09,1.23
30.133,0.62,-0.12,-0.75,0.98
30.143,0.48,0.03,-0.46,0.67
30.153,0.32,0.04,-0.45,0.56
30.163,0.30,-0.24,-0.78,0.87
30.173,0.23,-0.50,-0.94,1.09
30.183,0.14,-0.07,-0.83,0.85
30.194,-0.04,0.41,-0.70,0.82
30.203,-0.32,0.59,-0.65,0.93
30.214,-0.49,0.60,-0.58,0.97
30.224,-0.41,0.44,-0.61,0.86
30.234,-0.12,0.29,-0.78,0.84
30.244,0.17,0.09,-0.96,0.98
30.254,0.43,-0.19,-1.00,1.11
30.264,0.65,-0.59,-0.90,1.26
30.274,0.44,-0.73,-0.65,1.07
30.284,0.13,-0.58,-0.18,0.63
30.294,0.05,-0.28,0.16,0.32
30.304,-0.07,-0.26,0.31,0.41
30.314,-0.05,-0.39,0.31,0.50
30.324,0.01,-0.35,0.26,0.44
30.334,0.07,-0.31,0.28,0.42
30.345,0.13,-0.34,0.29,0.47
30.355,0.15,-0.34,0.28,0.47
30.365,0.18,-0.31,0.30,0.47
30.375,0.17,-0.24,0.35,0.46
30.385,0.08,-0.07,0.39,0.41
30.395,-0.10,0.12,0.36,0.39
30.405,-0.23,0.31,0.27,0.47
30.415,-0.21,0.35,0.17,0.44
30.425,-0.11,0.24,0.01,0.26
30.435,0.04,0.12,-0.13,0.18
30.445,0.14,0.03,-0.17,0.22
30.455,0.22,-0.01,-0.22,0.31
30.465,0.28,0.03,-0.22,0.36
30.476,0.28,0.11,-0.22,0.37
30.486,0.26,0.17,-0.24,0.39
30.496,0.20,0.26,-0.29,0.44
30.506,0.13,0.27,-0.27,0.40
30.516,0.09,0.15,-0.21,0.27
30.526,0.13,0.04,-0.08,0.16
30.536,0.24,-0.09,0.11,0.28
30.546,0.31,-0.15,0.23,0.41
30.556,0.31,-0.12,0.24,0.41
30.566,0.24,-0.02,0.17,0.30
30.576,0.17,0.12,0.12,0.24
30.586,0.10,0.18,0.11,0.23
30.596,0.07,0.21,0.00,0.22
30.606,0.09,0.17,-0.06,0.20
30.616,0.11,0.08,-0.07,0.15
30.626,0.17,0.02,-0.06,0.18
30.636,0.19,-0.01,-0.01,0.19
30.647,0.15,-0.04,0.04,0.16
30.657,0.04,-0.03,0.07,0.09
30.667,0.01,0.02,0.09,0.10
30.677,0.03,0.09,0.03,0.10
30.687,0.06,0.07,-0.15,0.18
30.697,0.18,-0.03,-0.27,0.32
30.707,0.41,-0.10,-0.21,0.47
30.717,0.59,-0.21,-0.18,0.65
30.727,0.70,-0.23,-0.09,0.74
30.737,0.36,0.08,-0.44,0.57
30.747,-0.15,0.14,-0.61,0.64
30.757,-0.50,0.33,-0.70,0.92
30.767,-0.52,0.57,-0.79,1.10
30.777,-0.43,0.57,-0.73,1.02
30.788,-0.22,0.27,-0.42,0.55
30.798,0.12,-0.06,-0.08,0.16
