time,ax,ay,az,atotal
0.000,1.19,0.44,0.13,1.28
0.010,0.99,0.30,-0.04,1.04
0.020,0.55,0.25,-0.18,0.63
0.030,0.19,0.25,-0.25,0.40
0.040,0.03,0.40,-0.35,0.53
0.051,-0.03,0.63,-0.49,0.80
0.060,0.06,0.93,-0.53,1.08
0.071,0.17,1.13,-0.44,1.23
0.081,0.41,1.04,-0.34,1.17
0.091,0.70,0.77,-0.28,1.08
0.101,0.82,0.45,-0.22,0.96
0.111,0.75,0.08,-0.12,0.76
0.121,0.54,-0.25,0.11,0.60
0.131,0.25,-0.47,0.30,0.61
0.141,-0.02,-0.67,0.22,0.71
0.151,-0.13,-0.67,0.06,0.69
0.161,0.04,-0.67,-0.23,0.71
0.171,0.19,-0.63,-0.71,0.97
0.182,0.21,-0.42,-0.86,0.98
0.192,0.46,-0.09,-0.73,0.87
0.202,0.34,-0.15,-0.87,0.94
0.212,0.02,-0.21,-0.80,0.83
0.222,0.30,-0.49,-0.72,0.92
0.232,0.39,-0.61,-0.55,0.91
0.242,0.09,-0.46,0.09,0.48
0.252,0.46,-0.48,0.17,0.69
0.262,0.56,-0.32,-0.22,0.68
0.272,0.63,-0.20,-0.67,0.94
0.282,0.84,-0.71,-1.30,1.70
0.292,0.86,-1.54,-1.91,2.60
0.302,0.74,-2.09,-2.39,3.26
0.312,0.50,-2.27,-2.99,3.79
0.322,0.12,-2.10,-3.45,4.04
0.332,-0.03,-1.20,-3.24,3.46
0.343,-0.41,-0.30,-2.07,2.13
0.353,-0.41,-0.27,-1.27,1.36
0.363,-0.10,-0.98,-1.80,2.05
0.373,0.30,-1.46,-2.29,2.73
0.383,0.62,-1.32,-3.08,3.40
0.393,-0.13,-1.51,-3.61,3.92
0.403,-0.96,-2.04,-3.95,4.55
0.413,-1.29,-2.26,-3.49,4.35
0.423,-0.94,-2.46,-2.46,3.61
0.433,0.11,-3.40,-2.29,4.09
0.443,0.77,-3.76,-2.57,4.62
0.453,0.69,-3.80,-3.12,4.96
0.463,0.37,-3.82,-3.56,5.23
0.474,0.11,-3.77,-3.32,5.02
0.484,-0.34,-3.96,-2.97,4.96
0.494,-0.36,-3.80,-2.86,4.77
0.504,-0.46,-4.67,-3.93,6.12
0.514,-1.21,-5.05,-3.60,6.32
0.524,-1.60,-4.59,-2.68,5.55
0.534,-1.56,-4.57,-2.70,5.53
0.544,-1.11,-4.25,-3.22,5.45
0.554,-0.68,-3.63,-4.04,5.47
0.564,-0.65,-3.29,-4.36,5.51
0.574,-1.15,-3.33,-4.12,5.43
0.584,-1.85,-3.58,-3.79,5.54
0.594,-2.56,-3.75,-3.43,5.69
0.604,-3.10,-3.54,-2.59,5.37
0.615,-3.05,-2.87,-0.91,4.29
0.624,-2.16,-2.46,1.72,3.70
0.635,-1.16,-2.89,5.08,5.96
0.645,-0.84,-3.59,8.50,9.27
0.655,-1.14,-3.85,11.29,11.99
0.665,-1.14,-3.64,13.19,13.73
0.675,-0.49,-2.97,14.27,14.58
0.685,0.45,-2.27,14.64,14.82
0.695,1.27,-1.53,13.97,14.11
0.705,1.20,-0.71,12.52,12.60
0.715,0.45,-0.57,10.91,10.94
0.725,-0.20,-0.76,9.42,9.45
0.735,0.06,-0.55,8.33,8.35
0.745,1.81,0.04,7.46,7.67
0.755,4.57,1.25,6.31,7.89
0.765,7.09,3.09,4.77,9.08
0.776,8.95,4.37,3.24,10.48
0.786,10.00,4.74,2.48,11.34
0.796,10.60,4.78,2.47,11.89
0.806,11.53,4.97,2.25,12.76
0.816,12.13,4.83,0.73,13.08
0.826,11.13,4.58,-4.77,12.95
0.836,7.68,3.92,-11.52,14.39
0.846,1.80,2.66,-23.44,23.66
0.856,-0.60,1.52,-23.89,23.94
0.866,3.50,-1.31,-9.73,10.42
0.876,5.91,-1.91,-0.53,6.24
0.886,5.26,-0.76,0.38,5.33
0.897,2.90,-1.88,2.64,4.35
0.907,-0.81,-2.05,5.17,5.62
0.917,-2.57,-1.15,3.52,4.51
0.927,-7.69,-1.53,-1.21,7.94
0.937,-7.01,-2.07,-1.70,7.51
0.947,-4.01,-2.33,-0.49,4.66
0.957,-1.39,-2.54,1.17,3.13
0.967,-0.72,-2.93,2.42,3.87
0.977,-1.20,-2.42,4.27,5.06
0.987,-0.93,-1.20,8.14,8.28
0.997,-2.43,-1.23,7.40,7.89
1.007,-1.55,0.39,4.13,4.42
1.017,1.60,1.09,2.36,3.05
1.027,3.07,1.38,0.30,3.38
1.037,1.13,0.50,-1.66,2.07
1.047,-2.30,-0.37,-4.41,4.99
1.057,-4.43,-0.70,-5.29,6.94
1.068,-4.51,-1.11,-2.34,5.20
1.078,-4.79,-1.29,-0.23,4.97
1.088,-4.42,-1.21,0.37,4.60
1.098,-3.54,0.04,-0.25,3.54
1.108,-2.76,1.47,-0.77,3.22
1.118,-3.32,1.69,-0.16,3.72
1.128,-4.52,2.30,0.06,5.08
1.138,-5.24,3.08,-0.21,6.08
1.148,-5.68,3.41,-0.20,6.63
1.158,-5.47,3.17,0.15,6.32
1.168,-4.25,2.56,0.43,4.97
1.178,-2.67,1.32,0.46,3.02
1.189,-2.30,-0.09,0.17,2.31
1.199,-1.86,-1.22,0.17,2.23
1.209,-0.60,-2.18,0.08,2.26
1.219,-0.86,-2.55,-0.00,2.70
1.229,0.00,-2.49,-0.57,2.55
1.239,1.55,-3.15,-0.14,3.52
1.249,2.10,-4.25,0.51,4.77
1.259,1.59,-3.89,0.75,4.27
1.269,0.44,-3.16,0.03,3.19
1.279,0.06,-2.72,-0.74,2.82
1.289,0.57,-2.57,-1.51,3.03
1.299,2.08,-3.04,-2.01,4.20
1.309,3.78,-3.38,-1.52,5.29
1.319,5.03,-2.56,-0.77,5.70
1.329,5.72,-1.67,-0.40,5.97
1.340,5.78,-1.28,0.13,5.92
1.350,4.60,-1.11,0.85,4.80
1.360,2.86,-0.64,1.32,3.22
1.370,0.99,0.13,1.05,1.45
1.380,0.01,0.47,0.31,0.56
1.390,-0.88,0.63,-0.31,1.13
1.400,-1.75,0.31,-0.03,1.78
1.410,-2.27,-0.20,0.28,2.30
1.420,-3.14,-0.24,-0.19,3.15
1.430,-3.56,1.35,-2.65,4.64
1.440,-3.37,1.36,-3.38,4.96
1.450,-3.23,0.78,-1.38,3.60
1.460,-2.39,-0.19,0.76,2.52
1.470,-0.71,-0.73,2.03,2.27
1.481,1.15,-0.70,1.99,2.40
1.491,2.49,-0.63,1.57,3.01
1.501,2.82,-0.35,0.51,2.89
1.511,1.84,-0.22,-0.34,1.89
1.521,0.72,0.07,0.09,0.73
1.531,0.05,0.57,0.64,0.86
1.541,-0.39,0.92,0.86,1.32
1.551,-0.56,1.23,1.03,1.70
1.561,-0.66,1.46,0.87,1.82
1.571,-0.80,1.47,0.52,1.75
1.581,-0.80,1.69,-0.17,1.87
1.591,-0.43,2.72,-1.26,3.03
1.601,-0.42,2.49,-1.49,2.93
1.611,-0.57,2.26,-1.65,2.85
1.622,-0.85,2.12,-1.25,2.61
1.632,-0.96,1.80,-0.31,2.06
1.642,-1.09,1.58,0.02,1.91
1.652,-1.33,1.33,0.36,1.92
1.662,-1.55,1.36,0.52,2.13
1.672,-1.86,1.75,0.31,2.58
1.682,-2.14,2.09,0.06,2.99
1.692,-2.22,2.44,0.01,3.30
1.702,-2.15,2.83,0.24,3.56
1.712,-1.97,3.06,0.60,3.69
1.722,-1.77,3.17,0.77,3.71
1.732,-1.55,3.11,0.74,3.55
1.742,-1.34,2.82,0.80,3.22
1.752,-0.85,2.15,0.93,2.49
1.762,0.10,-0.20,0.67,0.71
1.772,0.41,-3.75,0.45,3.80
1.783,1.03,-7.52,0.01,7.59
1.793,2.13,-10.79,0.41,11.00
1.803,2.44,-13.32,0.93,13.57
1.813,3.44,-9.27,2.23,10.14
1.823,4.05,-3.30,3.43,6.25
1.833,3.72,-3.10,2.70,5.55
1.843,3.17,-3.62,0.62,4.85
1.853,2.21,-3.29,-2.44,4.65
1.863,1.07,-2.35,-5.94,6.48
1.873,0.11,-1.42,-7.35,7.48
1.883,-0.45,-1.15,-5.34,5.48
1.893,-0.48,-1.18,-2.38,2.70
1.904,-0.53,-1.04,-0.38,1.23
1.914,-0.60,-1.00,0.65,1.34
1.924,-0.66,-1.30,0.79,1.66
1.934,-0.75,-1.18,0.61,1.53
1.944,-0.70,-0.05,0.68,0.98
1.954,-0.65,1.20,0.86,1.62
1.964,-0.69,1.71,0.80,2.01
1.974,-0.73,2.02,0.60,2.24
1.984,-0.83,2.17,0.48,2.37
1.994,-0.73,2.09,0.30,2.23
2.004,-0.43,1.72,0.18,1.78
2.014,-0.11,1.13,0.21,1.16
2.024,0.16,0.57,0.27,0.65
2.034,0.29,0.16,0.48,0.59
2.045,0.39,-0.17,0.58,0.72
2.055,0.44,-0.31,0.59,0.80
2.065,0.38,-0.31,0.50,0.70
2.075,0.33,-0.14,0.35,0.50
2.085,0.36,-0.01,0.11,0.37
2.095,0.41,0.05,-0.11,0.43
2.105,0.37,-0.01,-0.25,0.44
2.115,0.32,-0.08,-0.38,0.50
2.125,0.26,-0.06,-0.42,0.50
2.135,0.27,-0.00,-0.43,0.51
2.145,0.29,0.12,-0.46,0.56
2.155,0.33,0.33,-0.55,0.72
2.165,0.38,0.48,-0.51,0.80
2.175,0.41,0.50,-0.48,0.81
2.186,0.41,0.38,-0.46,0.72
2.195,0.37,0.22,-0.47,0.63
2.206,0.27,0.08,-0.44,0.52
2.216,0.20,-0.13,-0.41,0.47
2.226,0.05,-0.30,-0.36,0.47
2.236,-0.18,-0.34,-0.22,0.45
2.246,-0.40,-0.34,-0.13,0.54
2.256,-0.57,-0.28,-0.09,0.64
2.266,-0.78,-0.16,-0.02,0.80
2.276,-0.96,-0.09,0.08,0.97
2.286,-1.09,-0.11,0.03,1.10
2.296,-1.19,-0.02,-0.06,1.19
2.306,-1.36,0.09,-0.08,1.36
2.316,-1.43,0.25,-0.12,1.46
2.327,-1.33,0.48,-0.07,1.42
2.337,-1.06,0.65,0.03,1.25
2.347,-0.84,0.64,0.07,1.05
2.357,-0.79,0.48,0.01,0.93
2.367,-0.83,0.38,-0.19,0.94
2.377,-0.88,0.21,-0.53,1.05
2.387,-0.92,0.01,-1.07,1.42
2.397,-0.87,-0.07,-1.55,1.78
2.407,-0.68,-0.11,-1.80,1.93
2.417,-0.39,-0.09,-1.91,1.95
2.427,0.00,-0.08,-1.91,1.91
2.437,0.46,0.03,-1.66,1.73
2.447,0.79,0.25,-1.22,1.47
2.457,0.88,0.24,-0.70,1.15
2.468,0.78,0.02,-0.19,0.80
2.478,0.63,-0.27,0.29,0.74
2.488,0.52,-0.61,0.66,1.04
2.498,0.45,-0.84,0.90,1.31
2.508,0.43,-0.74,1.04,1.35
2.518,0.37,-0.51,1.04,1.22
2.528,0.35,-0.30,0.92,1.03
2.538,0.34,-0.18,0.77,0.86
2.548,0.40,-0.05,0.68,0.79
2.558,0.48,0.10,0.61,0.78
2.568,0.63,0.35,0.58,0.93
2.578,0.82,0.52,0.57,1.12
2.588,0.97,0.49,0.55,1.22
2.598,1.13,0.31,0.48,1.27
2.609,1.30,0.07,0.43,1.37
2.619,1.41,-0.21,0.40,1.48
2.629,1.43,-0.40,0.28,1.51
2.639,1.47,-0.40,0.18,1.53
2.649,1.58,-0.27,0.14,1.61
2.659,1.66,0.07,0.10,1.66
2.669,1.71,0.40,0.02,1.76
2.679,1.66,0.64,-0.03,1.78
2.689,1.48,0.77,-0.02,1.67
2.699,1.26,0.75,0.02,1.46
2.709,0.96,0.63,0.01,1.15
2.719,0.64,0.45,-0.09,0.78
2.729,0.47,0.34,-0.16,0.60
2.739,0.30,0.37,-0.18,0.51
2.750,0.15,0.37,-0.27,0.48
2.759,0.11,0.21,-0.44,0.50
2.770,0.17,0.03,-0.72,0.74
2.780,0.35,-0.07,-0.98,1.04
2.790,0.57,-0.16,-1.19,1.33
2.800,0.72,-0.11,-1.40,1.58
2.810,0.74,-0.10,-1.67,1.83
2.820,0.46,0.22,-1.82,1.89
2.830,0.20,-0.10,-2.34,2.35
2.840,-0.08,-0.19,-2.80,2.81
2.850,-0.09,-0.22,-3.08,3.09
2.860,0.02,-0.26,-3.25,3.26
2.870,0.21,-0.22,-3.36,3.37
2.880,0.40,-0.12,-3.32,3.34
2.890,0.57,0.03,-3.14,3.19
2.900,0.62,0.25,-2.77,2.85
2.911,0.57,0.34,-2.37,2.46
2.921,0.52,0.19,-2.01,2.09
2.931,0.56,-0.12,-1.71,1.80
2.941,0.71,-0.41,-1.50,1.71
2.951,0.88,-0.56,-1.43,1.77
2.961,1.02,-0.58,-1.45,1.86
2.971,1.12,-0.50,-1.54,1.97
2.981,1.11,-0.34,-1.60,1.98
2.991,1.00,-0.33,-1.65,1.96
3.001,0.96,-0.81,-1.73,2.14
3.011,1.02,-1.33,-1.91,2.54
3.021,1.13,-1.66,-2.04,2.86
3.032,1.18,-1.92,-2.02,3.03
3.041,1.07,-2.19,-1.82,3.04
3.052,0.99,-2.65,-1.47,3.19
3.062,0.90,-3.31,-1.09,3.60
3.072,0.83,-4.02,-0.66,4.16
3.082,0.87,-4.70,-0.40,4.80
3.092,0.98,-5.08,-0.38,5.19
3.102,1.30,-5.12,-0.62,5.32
3.112,1.95,-4.51,-1.00,5.01
3.122,2.52,-3.77,-1.20,4.69
3.132,2.79,-3.20,-1.14,4.40
3.142,2.93,-2.62,-0.99,4.05
3.152,2.79,-2.04,-0.67,3.52
3.162,2.16,-1.52,-0.39,2.67
3.172,1.41,-1.25,-0.34,1.92
3.183,0.67,-1.08,-0.45,1.35
3.193,-0.06,-0.90,-0.63,1.10
3.203,-0.69,-0.61,-0.72,1.17
3.213,-1.22,-0.26,-0.74,1.45
3.223,-1.53,-0.03,-0.70,1.68
3.233,-1.73,-0.07,-0.77,1.89
3.243,-1.96,-0.17,-1.15,2.27
3.253,-2.41,-0.60,-2.28,3.37
3.263,-2.53,-1.35,-3.56,4.57
3.273,-2.13,-1.78,-2.73,3.89
3.283,-1.72,-2.03,-1.16,2.90
3.293,-1.18,-2.08,-0.26,2.41
3.303,-0.36,-1.93,-0.03,1.96
3.313,0.16,-1.53,-0.04,1.54
3.323,0.60,-1.14,-0.03,1.28
3.334,1.01,-0.77,0.16,1.28
3.344,1.17,-0.16,1.22,1.70
3.354,0.91,0.78,3.81,3.99
3.364,0.72,1.02,2.95,3.21
3.374,0.92,0.43,1.28,1.64
3.384,0.68,0.11,0.44,0.81
3.394,0.49,-0.78,-0.09,0.92
3.404,-0.11,-1.65,-0.86,1.87
3.414,-0.53,-2.06,-0.84,2.29
3.424,-1.02,-2.56,0.21,2.76
3.434,-1.16,-2.87,0.76,3.18
3.444,-0.72,-2.90,0.53,3.04
3.454,-0.39,-2.74,0.17,2.77
3.464,-0.35,-2.34,0.67,2.45
3.475,-0.60,-1.72,1.21,2.19
3.484,-0.85,-1.12,1.68,2.19
3.495,-1.06,-0.68,2.35,2.66
3.505,-1.20,-0.11,3.04,3.27
3.515,-1.35,1.37,3.60,4.08
3.525,-1.10,0.56,1.47,1.92
3.535,-0.52,0.56,1.90,2.04
3.545,0.59,-0.02,1.52,1.63
3.555,0.67,-0.28,1.88,2.01
3.565,0.14,0.16,2.87,2.88
3.575,-0.48,0.66,2.87,2.98
3.585,-1.19,1.15,1.93,2.54
3.595,-1.54,1.65,3.68,4.32
3.605,-1.83,2.38,5.26,6.06
3.616,-1.41,3.05,5.46,6.41
3.626,-0.14,3.25,4.53,5.57
3.636,0.47,2.71,2.04,3.42
3.646,-1.21,2.41,2.76,3.86
3.656,-2.10,2.35,4.06,5.14
3.666,-2.28,2.60,4.16,5.41
3.676,-2.05,2.94,3.96,5.34
3.686,-1.58,3.29,3.78,5.26
3.696,-1.27,3.58,3.63,5.26
3.706,-0.99,3.79,3.56,5.29
3.716,-0.74,3.79,3.55,5.25
3.726,-0.47,3.67,3.45,5.06
3.736,-0.18,3.49,3.12,4.69
3.746,0.11,3.20,2.72,4.20
3.757,0.38,2.86,2.35,3.72
3.767,0.57,2.57,2.13,3.38
3.777,0.67,2.26,2.04,3.12
3.787,0.86,2.01,1.47,2.63
3.797,1.64,1.54,-1.98,3.00
3.807,3.47,0.09,-10.85,11.40
3.817,4.05,-3.14,-14.80,15.66
3.827,0.29,-7.34,-9.21,11.78
3.837,-2.96,-8.81,-0.10,9.29
3.847,-4.49,-6.85,8.94,12.13
3.857,-4.21,-3.88,10.50,11.96
3.867,-2.95,-1.77,6.86,7.67
3.877,-2.36,0.05,-1.86,3.00
3.887,-1.98,1.38,-3.97,4.65
3.898,-2.11,1.96,-0.43,2.92
3.907,-1.97,1.34,1.43,2.78
3.918,-0.70,-0.27,1.94,2.08
3.928,0.39,-1.80,0.90,2.05
3.938,0.52,-2.81,-0.01,2.86
3.948,-0.25,-3.16,0.32,3.19
3.958,-1.05,-3.25,0.92,3.54
3.968,-1.57,-3.04,1.33,3.67
3.978,-1.56,-2.36,1.25,3.09
3.988,-1.21,-1.21,1.08,2.02
3.998,-0.95,-0.19,1.07,1.45
4.008,-0.72,0.46,1.31,1.57
4.018,-0.62,0.79,1.60,1.89
4.028,-0.61,0.80,1.73,2.00
4.039,-0.63,0.47,1.63,1.81
4.049,-0.70,-0.24,1.39,1.58
4.059,-0.75,-1.04,0.96,1.60
4.069,-0.63,-1.65,0.52,1.85
4.079,-0.21,-2.01,0.32,2.05
4.089,0.20,-2.01,0.45,2.07
4.099,0.45,-1.68,0.61,1.84
4.109,0.65,-1.30,0.64,1.58
4.119,0.82,-0.69,0.53,1.20
4.129,0.86,0.00,0.29,0.91
4.139,0.84,0.57,-0.09,1.02
4.149,0.73,1.00,-0.32,1.28
4.159,0.55,1.23,-0.38,1.40
4.169,0.36,1.16,-0.29,1.25
4.179,0.22,0.97,-0.02,1.00
4.189,0.22,0.68,0.31,0.78
4.200,0.30,0.43,0.63,0.82
4.210,0.43,0.38,0.86,1.03
4.220,0.63,0.50,0.93,1.22
4.230,0.89,0.71,0.83,1.41
4.240,1.11,0.88,0.72,1.59
4.250,1.26,0.92,0.48,1.63
4.260,1.32,0.97,0.06,1.63
4.270,1.24,0.93,-0.38,1.60
4.280,1.15,0.88,-0.68,1.60
4.290,1.04,0.82,-0.89,1.60
4.300,0.88,0.66,-0.86,1.40
4.310,0.72,0.27,-0.72,1.05
4.321,0.49,-0.06,-0.46,0.68
4.331,0.28,-0.25,-0.24,0.45
4.341,0.06,-0.30,-0.14,0.33
4.351,-0.08,-0.19,-0.03,0.21
4.361,-0.14,0.10,0.09,0.19
4.371,-0.11,0.50,0.08,0.52
4.381,-0.03,0.38,-0.52,0.65
4.391,-0.26,0.58,-0.94,1.13
4.401,-0.45,0.92,-1.24,1.61
4.411,-0.39,0.83,-1.92,2.13
4.421,-0.49,0.69,-2.55,2.68
4.431,-0.42,0.66,-2.80,2.91
4.441,-0.17,0.56,-2.82,2.88
4.451,0.07,0.42,-2.80,2.83
4.461,0.22,0.20,-2.73,2.75
4.471,0.49,-0.23,-2.53,2.58
4.482,0.97,-0.74,-2.17,2.48
4.492,1.40,-1.02,-1.83,2.52
4.502,1.66,-1.12,-1.66,2.59
4.512,1.88,-1.11,-1.56,2.68
4.522,2.11,-1.01,-1.42,2.74
4.532,2.33,-0.95,-1.23,2.80
4.542,2.39,-1.02,-1.08,2.82
4.552,2.32,-1.26,-0.86,2.78
4.562,2.18,-1.68,-0.84,2.88
4.572,1.81,-2.17,-0.94,2.98
4.582,1.16,-2.43,-1.00,2.87
4.592,0.52,-2.74,-1.13,3.01
4.603,0.23,-3.22,-1.17,3.43
4.612,0.45,-3.80,-0.95,3.94
4.623,0.73,-3.73,-0.24,3.81
4.633,0.87,-5.11,0.08,5.18
4.643,0.33,-5.58,0.64,5.63
4.653,-0.29,-5.45,1.21,5.59
4.663,-0.96,-5.25,1.38,5.52
4.673,-1.63,-4.63,1.40,5.10
4.683,-2.13,-3.38,1.45,4.25
4.693,-2.57,-1.83,1.29,3.41
4.703,-2.98,-0.32,0.75,3.09
4.713,-3.29,0.77,-0.90,3.50
4.723,-3.75,0.94,-6.59,7.64
4.733,-2.67,-0.06,-15.92,16.14
4.743,-1.32,-1.22,-13.87,13.98
4.753,-0.43,-1.97,-8.09,8.33
4.764,-0.01,-2.44,-3.86,4.57
4.774,-0.51,-2.87,0.56,2.97
4.784,-0.62,-2.84,4.13,5.05
4.794,-0.52,-2.64,5.74,6.34
4.804,-0.22,-2.31,5.76,6.20
4.814,0.00,-1.92,5.19,5.53
4.824,0.27,-1.48,4.22,4.47
4.834,0.51,-1.26,2.81,3.12
4.844,0.89,-1.01,1.66,2.13
4.854,1.40,-0.66,0.64,1.67
4.864,1.78,-0.53,-0.54,1.94
4.874,1.70,-0.76,-1.40,2.33
4.884,1.38,-1.07,-1.98,2.64
4.894,0.56,-1.26,-1.53,2.06
4.905,-0.58,-1.14,0.47,1.37
4.915,-1.16,-0.76,2.61,2.95
4.925,-1.23,-0.33,3.87,4.07
4.935,-1.01,0.10,3.56,3.70
4.945,-0.21,0.22,2.71,2.72
4.955,0.26,0.06,1.98,1.99
4.965,0.06,0.03,1.16,1.17
4.975,-0.66,0.07,0.72,0.98
4.985,-1.24,0.21,0.97,1.59
4.995,-1.34,0.45,1.74,2.24
5.005,-1.26,0.79,2.76,3.13
5.015,-1.18,1.14,3.65,4.00
5.025,-1.19,1.68,4.20,4.68
5.035,-1.48,2.27,4.20,5.00
5.046,-1.78,2.76,3.92,5.11
5.056,-1.73,3.21,4.09,5.48
5.066,-1.51,3.47,4.47,5.86
5.076,-1.31,3.58,4.74,6.09
5.086,-1.19,3.63,4.90,6.22
5.096,-1.07,3.56,4.94,6.18
5.106,-1.00,3.42,4.74,5.93
5.116,-0.96,3.21,4.49,5.60
5.126,-0.80,3.16,4.25,5.36
5.136,-0.51,3.21,4.03,5.18
5.146,-0.08,3.31,3.86,5.09
5.156,0.25,3.33,3.43,4.79
5.166,0.49,3.25,2.93,4.40
5.176,0.45,3.06,2.60,4.04
5.187,0.23,2.82,2.28,3.63
5.196,0.24,2.60,2.05,3.32
5.207,0.41,2.45,1.83,3.09
5.217,0.80,2.37,1.20,2.77
5.227,1.43,2.13,-2.55,3.61
5.237,2.88,1.06,-12.51,12.88
5.247,2.58,-1.34,-13.47,13.79
5.257,-1.21,-5.23,-6.39,8.34
5.267,-3.02,-6.77,4.29,8.57
5.277,-3.39,-6.37,9.24,11.72
5.287,-2.47,-5.60,5.67,8.35
5.297,-2.07,-5.29,-3.19,6.51
5.307,-4.84,-3.56,-3.12,6.77
5.317,-6.23,-0.91,-0.29,6.30
5.328,-4.30,0.88,0.54,4.43
5.338,-0.87,0.44,1.51,1.79
5.348,1.14,-1.56,0.43,1.98
5.358,1.18,-3.70,-0.88,3.98
5.368,-0.01,-4.83,0.06,4.83
5.378,-1.20,-4.89,1.55,5.27
5.388,-1.46,-4.32,1.38,4.76
5.398,-1.18,-3.00,0.74,3.30
5.408,-0.93,-1.41,0.96,1.94
5.418,-0.79,0.03,1.61,1.80
5.428,-0.52,0.84,2.07,2.29
5.438,-0.13,1.26,2.30,2.62
5.448,0.14,1.36,2.29,2.67
5.458,0.34,1.02,2.08,2.34
5.468,0.47,0.30,1.77,1.86
5.479,0.42,-0.42,1.48,1.60
5.489,0.40,-0.96,1.16,1.56
5.499,0.42,-1.23,0.85,1.56
5.509,0.46,-1.30,0.67,1.53
5.519,0.54,-1.18,0.55,1.41
5.529,0.60,-0.97,0.41,1.22
5.539,0.70,-0.60,0.21,0.94
5.549,0.83,-0.19,0.00,0.85
5.559,0.88,0.27,-0.03,0.92
5.569,0.84,0.66,-0.03,1.07
5.579,0.65,1.00,0.02,1.19
5.589,0.36,1.16,0.08,1.21
5.600,0.09,1.22,0.19,1.24
5.610,-0.19,1.25,0.28,1.29
5.620,-0.43,1.24,0.26,1.34
5.630,-0.57,1.29,0.14,1.42
5.640,-0.61,1.39,-0.09,1.52
5.650,-0.48,1.49,-0.49,1.64
5.660,-0.02,1.54,-0.90,1.78
5.670,0.57,1.51,-1.30,2.07
5.680,1.08,1.35,-1.69,2.42
5.690,1.53,1.09,-1.81,2.61
5.700,1.73,0.77,-1.69,2.54
5.710,1.87,0.45,-1.38,2.37
5.720,1.91,0.26,-1.27,2.31
5.730,1.83,0.14,-1.24,2.22
5.740,1.69,0.18,-1.22,2.09
5.751,1.58,0.10,-1.16,1.96
5.760,1.40,-0.01,-1.02,1.73
5.771,1.26,-0.04,-0.96,1.59
5.781,1.06,-0.08,-1.02,1.48
5.791,0.86,-0.06,-1.20,1.48
5.801,0.48,0.12,-1.41,1.49
5.811,0.25,0.23,-1.53,1.56
5.821,0.23,0.24,-1.40,1.44
5.831,0.25,0.24,-1.13,1.18
5.841,0.20,0.23,-0.84,0.90
5.851,0.03,0.24,-0.59,0.64
5.861,-0.15,0.33,-0.38,0.52
5.871,-0.24,0.37,-0.23,0.50
5.881,-0.25,0.39,-0.25,0.52
5.892,-0.15,0.29,-0.32,0.46
5.902,0.07,0.12,-0.43,0.45
5.912,0.39,-0.07,-0.57,0.69
5.922,0.73,-0.32,-0.71,1.07
5.932,1.13,-0.62,-0.92,1.58
5.942,1.52,-1.07,-1.27,2.25
5.952,1.88,-1.65,-1.83,3.10
5.962,2.17,-2.11,-2.39,3.85
5.972,2.16,-2.39,-2.85,4.30
5.982,1.82,-2.00,-2.93,3.99
5.992,1.56,-2.61,-3.24,4.45
6.002,1.70,-3.07,-3.09,4.68
6.012,2.16,-4.03,-2.52,5.22
6.022,2.53,-4.96,-1.56,5.78
6.033,2.49,-5.54,-0.52,6.10
6.042,2.15,-6.15,0.38,6.52
6.053,1.12,-6.70,0.72,6.83
6.063,-0.58,-6.73,0.21,6.76
6.073,-2.58,-6.23,-1.44,6.90
6.083,-4.88,-5.53,-4.65,8.72
6.093,-7.36,-4.44,-9.44,12.77
6.103,-7.59,-2.72,-10.94,13.59
6.113,-5.89,-1.40,-8.31,10.28
6.123,-4.28,-0.85,-5.38,6.93
6.133,-3.10,-1.02,-2.51,4.12
6.143,-2.22,-1.71,0.38,2.83
6.153,-1.65,-2.38,3.09,4.24
6.163,-0.88,-2.62,4.31,5.12
6.173,-0.32,-2.24,4.75,5.26
6.183,-0.19,-1.47,5.61,5.80
6.194,0.01,-1.02,6.05,6.13
6.204,0.20,-0.57,6.27,6.30
6.214,0.61,0.03,5.86,5.89
6.224,2.02,0.35,3.46,4.02
6.234,4.31,0.16,-1.25,4.49
6.244,5.04,-0.71,-3.69,6.29
6.254,3.89,-1.61,-3.36,5.39
6.264,1.97,-2.01,-2.04,3.47
6.274,0.19,-2.01,0.12,2.03
6.284,-0.97,-1.68,2.50,3.16
6.294,-0.77,-1.36,3.04,3.42
6.304,-0.33,-1.20,2.19,2.52
6.314,-0.46,-0.81,1.96,2.17
6.324,-0.95,-0.03,2.13,2.34
6.335,-1.52,0.72,2.50,3.01
6.345,-1.82,0.99,2.64,3.35
6.355,-1.70,1.07,2.50,3.21
6.365,-2.20,1.47,4.79,5.47
6.375,-2.13,2.00,4.84,5.65
6.385,-1.45,1.34,-0.92,2.18
6.395,-1.47,1.50,2.72,3.43
6.405,-1.56,1.89,3.95,4.65
6.415,-1.82,2.15,2.61,3.84
6.425,-1.86,2.35,3.68,4.74
6.435,-1.72,2.61,5.28,6.13
6.445,-1.72,3.06,6.17,7.10
6.456,-1.71,3.60,6.30,7.46
6.466,-1.72,3.99,5.96,7.37
6.476,-1.81,4.13,5.44,7.07
6.486,-1.97,4.14,4.89,6.71
6.496,-2.05,4.03,4.48,6.37
6.506,-1.88,3.92,4.30,6.11
6.516,-1.46,3.86,4.24,5.92
6.526,-0.72,3.59,4.02,5.44
6.536,0.10,3.25,3.83,5.02
6.546,0.77,2.79,3.64,4.65
6.556,1.21,2.50,3.25,4.27
6.566,1.48,2.40,2.56,3.81
6.576,1.74,2.38,2.10,3.62
6.586,1.87,2.51,2.22,3.83
6.596,1.96,2.66,1.95,3.83
6.606,2.83,2.52,-3.17,4.94
6.617,5.60,1.32,-14.94,16.01
6.627,5.09,-2.53,-18.67,19.52
6.637,-0.15,-7.34,-8.18,10.99
6.647,-3.37,-8.56,6.79,11.43
6.657,-4.04,-9.38,9.92,14.23
6.667,-2.71,-9.55,6.79,12.02
6.677,-1.92,-7.35,1.94,7.84
6.687,-3.45,-3.27,-2.93,5.58
6.697,-4.22,1.29,-4.89,6.59
6.707,-2.65,3.70,-2.64,5.26
6.717,-0.64,3.42,0.70,3.55
6.727,0.11,1.13,1.71,2.05
6.738,-0.04,-1.98,0.80,2.14
6.747,-0.54,-4.54,-0.26,4.58
6.758,-1.33,-5.78,0.20,5.93
6.768,-1.89,-5.46,0.92,5.85
6.778,-2.10,-3.77,1.18,4.48
6.788,-1.94,-1.83,1.19,2.92
6.798,-1.54,-0.21,1.19,1.96
6.808,-1.05,0.87,1.52,2.04
6.818,-0.69,1.25,1.99,2.45
6.828,-0.32,1.04,2.33,2.57
6.838,0.03,0.42,2.35,2.39
6.848,0.28,-0.50,2.07,2.14
6.858,0.45,-1.30,1.66,2.15
6.868,0.59,-1.69,1.44,2.30
6.879,0.76,-1.67,1.32,2.26
6.888,0.97,-1.34,1.11,1.99
6.899,1.10,-0.84,0.84,1.62
6.909,1.23,-0.38,0.65,1.44
6.919,1.27,0.13,0.60,1.41
6.929,1.32,0.57,0.59,1.55
6.939,1.36,1.02,0.55,1.79
6.949,1.39,1.34,0.44,1.98
6.959,1.35,1.52,0.30,2.05
6.969,1.24,1.56,0.23,2.00
6.979,1.08,1.58,0.09,1.92
6.989,0.86,1.56,-0.06,1.78
6.999,0.59,1.46,-0.22,1.59
7.009,0.29,1.24,-0.30,1.30
7.019,0.18,1.01,-0.42,1.11
7.029,0.13,0.91,-0.54,1.07
7.040,0.19,0.95,-0.56,1.12
7.050,0.24,1.03,-0.66,1.25
7.060,0.38,1.06,-0.99,1.50
7.070,0.33,1.04,-1.30,1.70
7.080,0.36,0.88,-1.43,1.72
7.090,0.54,0.56,-1.28,1.50
7.100,0.66,0.27,-1.13,1.33
7.110,0.70,0.09,-0.86,1.11
7.120,0.70,-0.02,-0.52,0.87
7.130,0.64,-0.04,-0.23,0.68
7.140,0.59,-0.04,-0.05,0.59
7.150,0.58,0.02,0.02,0.58
7.160,0.54,0.07,-0.02,0.55
7.170,0.35,0.19,-0.19,0.44
7.181,0.22,0.21,-0.41,0.51
7.191,0.06,0.30,-0.59,0.66
7.201,-0.10,0.38,-0.76,0.86
7.211,-0.23,0.45,-0.97,1.09
7.221,-0.40,0.56,-1.20,1.38
7.231,-0.43,0.46,-1.30,1.45
7.241,-0.48,0.30,-1.28,1.40
7.251,-0.47,0.11,-1.26,1.35
7.261,-0.34,0.03,-1.17,1.22
7.271,-0.20,0.06,-1.09,1.10
7.281,-0.07,0.11,-1.06,1.06
7.291,0.13,0.10,-1.07,1.08
7.301,0.44,0.01,-1.07,1.16
7.311,0.77,-0.12,-1.00,1.27
7.322,1.05,-0.25,-0.88,1.40
7.331,1.24,-0.45,-0.72,1.50
7.342,1.37,-0.81,-0.55,1.68
7.352,1.42,-1.25,-0.46,1.95
7.362,1.50,-1.63,-0.56,2.29
7.372,1.57,-2.05,-0.77,2.70
7.382,1.70,-2.66,-0.98,3.30
7.392,1.78,-3.24,-1.09,3.85
7.402,1.84,-3.90,-1.00,4.43
7.412,1.87,-4.81,-0.59,5.19
7.422,1.84,-5.84,-0.11,6.13
7.432,1.67,-6.80,-0.04,7.00
7.442,1.14,-7.26,-0.10,7.35
7.452,0.38,-7.15,-0.20,7.17
7.463,-0.11,-6.36,-0.28,6.37
7.473,-0.64,-4.83,-0.16,4.88
7.483,-1.18,-3.15,-0.03,3.36
7.493,-1.64,-1.60,0.04,2.29
7.503,-2.41,-0.31,-0.84,2.57
7.513,-3.84,0.38,-4.92,6.25
7.523,-5.21,-0.35,-12.73,13.76
7.533,-4.77,-1.60,-15.48,16.28
7.543,-3.63,-2.24,-11.70,12.45
7.553,-2.79,-2.76,-6.86,7.91
7.563,-2.03,-3.28,-2.59,4.65
7.573,-0.97,-3.31,0.44,3.48
7.583,-0.59,-2.67,3.33,4.31
7.593,0.11,-1.73,4.54,4.86
7.604,0.47,-1.11,5.23,5.37
7.613,1.02,-0.76,5.11,5.26
7.624,1.63,-0.82,4.57,4.92
7.634,1.88,-1.01,4.08,4.60
7.646,1.79,-0.96,2.70,3.38
7.654,0.96,-1.10,0.55,1.56
7.666,-0.22,-1.37,-0.13,1.40
7.674,-1.11,-1.30,1.47,2.25
7.684,-1.12,-0.66,2.81,3.09
7.694,-0.33,-0.34,1.01,1.12
7.704,0.86,-0.49,-1.83,2.08
7.714,0.95,-0.73,-1.37,1.82
7.724,-0.17,-0.65,1.07,1.26
7.734,-1.00,0.08,3.36,3.51
7.744,-1.14,0.86,3.57,3.85
7.754,-0.97,1.21,3.99,4.28
7.765,-0.58,1.37,3.99,4.26
7.775,-0.36,1.48,3.68,3.98
7.785,-0.56,1.64,3.54,3.94
7.795,-1.41,1.96,6.73,7.15
7.805,-1.09,2.65,4.42,5.27
7.815,-0.96,2.83,2.44,3.85
7.825,-1.25,2.79,3.12,4.37
7.835,-1.38,2.83,3.83,4.95
7.845,-1.75,3.29,6.43,7.43
7.855,-1.83,3.64,5.63,6.95
7.865,-2.06,3.32,3.34,5.14
7.875,-2.41,3.05,3.54,5.26
7.886,-2.17,2.82,3.55,5.03
7.895,-1.63,2.69,3.59,4.77
7.906,-0.91,2.78,3.62,4.65
7.916,-0.27,3.00,4.08,5.07
7.926,0.00,3.34,4.32,5.46
7.936,0.36,3.71,4.68,5.98
7.946,0.82,4.10,4.68,6.28
7.956,1.03,4.38,4.48,6.35
7.966,0.88,4.46,4.31,6.26
7.976,0.51,4.44,3.87,5.91
7.986,0.14,4.31,3.23,5.39
7.996,0.00,4.00,1.36,4.23
8.006,1.39,3.10,-10.68,11.21
8.016,4.69,0.19,-26.03,26.45
8.027,0.14,-5.82,-15.05,16.14
8.037,-4.52,-9.46,-0.08,10.48
8.047,-5.53,-9.31,11.48,15.78
8.057,-4.66,-8.25,14.24,17.10
8.067,-2.91,-7.24,10.73,13.26
8.077,-1.23,-6.03,0.20,6.16
8.087,-2.38,-2.44,-6.70,7.51
8.097,-3.36,1.64,-7.79,8.64
8.107,-1.51,2.40,-2.76,3.96
8.117,-0.67,0.62,3.37,3.49
8.127,-0.38,-1.38,4.13,4.37
8.137,0.62,-3.38,0.11,3.44
8.147,0.97,-5.10,-3.07,6.03
8.157,-0.42,-5.66,-0.82,5.74
8.168,-1.84,-4.88,1.78,5.51
8.178,-2.22,-2.88,2.09,4.19
8.188,-1.98,-0.92,1.34,2.57
8.198,-1.41,0.42,0.80,1.68
8.208,-0.76,1.08,1.11,1.73
8.218,-0.38,1.06,1.84,2.15
8.228,-0.29,0.59,2.49,2.58
8.238,-0.12,-0.22,2.76,2.78
8.248,0.03,-1.00,2.58,2.77
8.258,0.22,-1.64,2.11,2.68
8.268,0.49,-2.04,1.69,2.69
8.278,0.81,-2.06,1.30,2.56
8.289,0.98,-1.69,1.04,2.21
8.298,1.14,-1.15,0.80,1.81
8.309,1.21,-0.53,0.73,1.51
8.319,1.25,0.14,0.70,1.44
8.329,1.27,0.81,0.53,1.59
8.339,1.26,1.35,0.39,1.89
8.349,1.13,1.75,0.29,2.10
8.359,1.09,2.00,0.12,2.28
8.369,1.06,2.16,-0.03,2.40
8.379,1.00,2.16,-0.12,2.38
8.389,1.04,2.11,-0.25,2.37
8.399,0.96,2.07,-0.45,2.33
8.409,0.91,2.00,-0.77,2.33
8.419,0.82,1.94,-1.09,2.37
8.429,0.78,1.81,-1.25,2.33
8.439,0.78,1.55,-1.39,2.23
8.450,0.72,1.21,-1.72,2.23
8.459,0.61,0.85,-1.87,2.14
8.470,0.62,0.46,-1.78,1.94
8.480,0.68,0.13,-1.56,1.71
8.490,0.66,-0.04,-1.31,1.47
8.500,0.23,-0.04,-1.25,1.27
8.510,-0.03,-0.06,-1.34,1.34
8.520,0.04,-0.18,-1.47,1.48
8.530,-0.02,-0.32,-1.59,1.62
8.540,0.01,-0.36,-1.64,1.68
8.550,0.00,-0.33,-1.76,1.79
8.560,-0.02,-0.26,-1.87,1.89
8.570,0.19,-0.14,-1.82,1.83
8.580,0.44,0.04,-1.63,1.68
8.590,0.57,0.19,-1.45,1.57
8.600,0.47,0.21,-1.33,1.43
8.611,0.19,0.22,-1.26,1.30
8.621,0.07,0.25,-1.23,1.25
8.631,0.18,0.17,-1.22,1.25
8.641,0.47,0.07,-1.24,1.33
8.651,0.86,0.02,-1.25,1.52
8.661,1.20,-0.07,-1.27,1.75
8.671,1.45,-0.14,-1.19,1.88
8.681,1.67,-0.34,-1.07,2.01
8.691,1.81,-0.73,-1.04,2.21
8.701,1.84,-1.25,-1.19,2.52
8.711,1.68,-1.67,-1.62,2.87
8.721,1.37,-2.06,-2.34,3.40
8.732,1.12,-2.44,-3.22,4.20
8.741,1.21,-2.95,-3.84,5.00
8.752,1.62,-3.15,-3.69,5.12
8.762,2.18,-4.20,-3.22,5.72
8.772,2.58,-4.93,-2.04,5.93
8.782,2.72,-5.94,-1.10,6.63
8.792,2.71,-7.32,-0.05,7.81
8.802,2.33,-8.39,1.03,8.77
8.812,0.53,-8.57,1.37,8.70
8.822,-1.23,-7.76,1.14,7.94
8.832,-2.87,-6.07,0.11,6.72
8.842,-4.84,-3.90,-3.20,6.99
8.852,-7.50,-1.51,-11.94,14.18
8.862,-7.78,0.26,-13.01,15.16
8.872,-6.34,0.64,-7.10,9.54
8.882,-4.27,-0.11,-2.32,4.86
8.893,-1.96,-1.25,1.09,2.57
8.903,-0.44,-2.36,2.77,3.67
8.913,0.15,-3.23,3.73,4.94
8.923,0.23,-3.21,4.48,5.52
8.933,1.07,-2.64,5.39,6.10
8.943,1.97,-2.18,5.77,6.48
8.953,2.93,-1.79,4.69,5.82
8.963,3.90,-1.38,2.23,4.70
8.973,4.50,-1.19,0.37,4.67
8.983,4.57,-1.19,-0.43,4.74
8.993,3.18,-1.13,-0.25,3.39
9.003,0.91,-0.93,0.46,1.38
9.013,-0.84,-0.73,1.38,1.77
9.023,-1.48,-0.44,2.32,2.79
9.033,-1.33,-0.07,4.69,4.88
9.044,-1.24,0.06,3.31,3.53
9.054,-0.41,0.31,0.59,0.79
9.064,0.35,0.48,-0.48,0.76
9.074,-0.85,-0.07,-2.11,2.28
9.084,-2.04,-0.35,1.26,2.42
9.094,-1.83,-0.22,3.59,4.03
9.104,-1.60,0.01,4.65,4.91
9.114,-1.06,0.36,5.33,5.45
9.124,-0.61,0.93,5.53,5.64
9.134,-0.39,1.48,5.56,5.76
9.144,-0.38,1.99,5.47,5.83
9.154,-0.58,2.50,5.21,5.81
9.164,-0.92,2.97,5.08,5.95
9.175,-1.28,3.41,5.18,6.33
9.185,-1.44,3.62,5.61,6.83
9.195,-1.36,3.69,6.20,7.35
9.205,-1.18,3.76,6.65,7.73
9.215,-0.99,3.92,6.84,7.95
9.225,-0.76,4.09,6.76,7.93
9.235,-0.53,4.26,6.29,7.62
9.245,-0.36,4.41,5.56,7.11
9.255,-0.02,4.39,4.74,6.46
9.265,-0.02,4.33,4.09,5.96
9.275,-0.26,4.21,3.53,5.50
9.285,-0.27,4.09,2.81,4.97
9.295,-0.02,4.03,2.24,4.61
9.305,0.21,3.88,2.29,4.51
9.316,0.17,3.57,2.87,4.58
9.326,0.04,3.04,3.10,4.34
9.336,0.14,2.41,0.93,2.59
9.346,1.27,1.47,-10.08,10.27
9.356,3.92,-1.15,-25.26,25.59
9.366,0.94,-8.46,-22.46,24.02
9.376,-2.97,-13.08,-4.31,14.09
9.386,-5.21,-12.30,12.28,18.14
9.396,-5.40,-10.56,13.68,18.11
9.406,-4.80,-8.41,8.60,12.95
9.416,-5.22,-4.61,-0.89,7.02
9.426,-5.14,1.03,-3.96,6.57
9.436,-2.83,4.87,-2.38,6.12
9.446,0.03,6.05,-0.31,6.06
9.457,1.61,4.09,2.23,4.93
9.466,1.50,0.27,3.86,4.15
9.477,0.83,-3.35,3.56,4.96
9.487,0.45,-6.33,2.26,6.74
9.497,0.34,-8.01,1.22,8.11
9.507,0.36,-7.38,0.94,7.45
9.517,0.43,-4.91,0.85,5.00
9.527,0.59,-2.11,0.82,2.34
9.537,1.05,-0.00,1.35,1.71
9.547,1.47,1.08,1.95,2.67
9.557,1.54,1.42,2.09,2.96
9.567,1.62,1.33,1.70,2.70
9.577,1.66,0.90,1.02,2.15
9.587,1.55,0.29,0.43,1.63
9.597,1.22,-0.41,0.16,1.30
9.608,0.79,-0.95,0.11,1.25
9.618,0.62,-1.17,0.23,1.34
9.628,0.59,-1.02,0.35,1.23
9.638,0.54,-0.66,0.34,0.92
9.648,0.53,-0.15,0.31,0.63
9.658,0.60,0.48,0.35,0.84
9.668,0.65,1.08,0.45,1.33
9.678,0.69,1.59,0.49,1.80
9.688,0.70,2.14,0.32,2.27
9.698,0.66,2.61,0.07,2.69
9.708,0.54,2.92,-0.10,2.97
9.718,0.21,3.02,-0.23,3.03
9.728,0.04,2.92,-0.52,2.97
9.739,0.16,2.69,-1.04,2.89
9.749,-0.05,2.23,-1.72,2.81
9.759,-0.21,1.57,-2.64,3.08
9.769,0.06,1.16,-3.33,3.53
9.779,0.13,0.70,-3.71,3.78
9.789,0.28,0.21,-3.66,3.67
9.799,0.59,-0.24,-3.43,3.49
9.809,0.90,-0.55,-3.12,3.30
9.819,1.29,-0.83,-2.65,3.06
9.829,1.59,-0.88,-2.17,2.83
9.839,1.73,-0.66,-1.88,2.64
9.849,1.84,-0.50,-1.61,2.50
9.859,1.68,-0.41,-1.45,2.25
9.869,1.40,-0.26,-1.44,2.03
9.879,1.00,-0.06,-1.53,1.83
9.889,0.69,0.15,-1.58,1.73
9.900,0.84,0.40,-1.67,1.91
9.910,1.36,0.61,-1.77,2.31
9.920,1.80,0.89,-1.77,2.67
9.930,1.87,1.38,-1.62,2.83
9.940,1.70,1.90,-1.37,2.89
9.950,1.45,2.25,-1.06,2.88
9.960,1.31,2.11,-0.85,2.62
9.970,1.42,1.23,-0.92,2.09
9.980,1.55,0.17,-1.12,1.92
9.990,1.54,-1.01,-1.27,2.24
10.000,1.60,-2.24,-1.33,3.06
10.010,1.69,-3.44,-1.23,4.02
10.020,1.67,-4.62,-0.99,5.02
10.030,1.54,-5.69,-0.76,5.94
10.041,1.33,-6.52,-0.74,6.70
10.051,1.21,-6.92,-0.91,7.08
10.061,1.42,-6.96,-0.95,7.17
10.071,1.64,-7.44,-0.82,7.67
10.081,1.83,-7.44,-0.60,7.68
10.091,1.90,-7.21,-0.46,7.47
10.101,1.60,-6.52,-0.27,6.72
10.111,0.79,-5.44,-0.05,5.49
10.121,-0.08,-4.13,0.22,4.13
10.131,-0.82,-2.64,0.50,2.81
10.141,-1.42,-1.07,0.79,1.94
10.151,-1.98,0.43,0.90,2.21
10.161,-2.33,1.61,0.56,2.89
10.172,-2.59,2.27,-0.17,3.45
10.182,-2.85,2.26,-2.44,4.38
10.192,-2.15,1.21,-7.88,8.26
10.202,0.06,0.07,-10.58,10.58
10.212,0.94,-0.28,-6.47,6.55
10.222,0.56,-0.68,-2.31,2.48
10.232,0.34,-1.06,0.74,1.34
10.242,0.28,-1.43,3.21,3.53
10.252,0.66,-1.66,4.93,5.24
10.262,1.16,-1.61,5.35,5.70
10.272,1.34,-1.07,5.10,5.38
10.282,1.46,-0.21,5.12,5.33
10.292,1.55,0.81,5.27,5.56
10.302,1.45,1.56,5.44,5.85
10.312,1.07,2.00,5.58,6.02
10.323,0.86,2.26,5.37,5.90
10.333,0.78,2.35,4.36,5.02
10.343,0.94,2.24,2.69,3.63
10.353,1.46,2.07,0.48,2.58
10.363,2.17,1.97,-1.87,3.47
10.373,2.76,2.05,-3.40,4.84
10.383,3.09,2.21,-3.66,5.28
10.393,2.56,2.30,-1.69,3.84
10.403,1.60,2.52,1.45,3.32
10.413,0.86,2.86,4.13,5.10
10.423,0.61,3.04,5.40,6.23
10.433,0.65,3.15,4.88,5.84
10.443,1.35,3.03,2.62,4.23
10.453,2.15,2.62,0.12,3.39
10.464,2.06,1.99,-0.56,2.92
10.474,1.38,1.36,-0.01,1.93
10.484,0.66,0.85,0.80,1.34
10.494,0.14,0.44,1.74,1.80
10.504,-0.34,0.24,2.57,2.60
10.514,-0.62,0.27,2.91,2.98
10.524,-0.85,0.46,2.88,3.03
10.534,-0.96,0.76,2.87,3.12
10.544,-1.00,0.98,3.08,3.38
10.554,-1.05,1.14,3.36,3.70
10.564,-1.18,1.25,3.60,3.99
10.574,-1.29,1.31,3.98,4.38
10.585,-1.44,1.35,4.29,4.72
10.594,-1.58,1.44,4.37,4.86
10.605,-1.74,1.65,4.32,4.94
10.615,-1.84,2.01,4.19,5.00
10.625,-1.94,2.46,4.00,5.08
10.635,-2.04,2.93,3.76,5.19
10.645,-2.06,3.38,3.43,5.24
10.655,-1.86,3.69,3.09,5.16
10.665,-1.54,3.78,2.64,4.86
10.675,-1.14,3.71,2.11,4.42
10.685,-0.65,3.26,1.71,3.74
10.695,-0.02,2.31,1.16,2.59
10.705,0.64,0.95,0.42,1.22
10.715,1.41,-0.49,-0.97,1.78
10.725,2.69,-1.89,-4.41,5.50
10.735,4.63,-3.77,-10.62,12.19
10.746,6.95,-6.72,-17.47,19.97
10.756,8.41,-8.40,-15.71,19.69
10.766,8.05,-7.77,-8.26,13.91
10.776,6.47,-5.68,-4.33,9.64
10.786,3.58,-3.66,-2.42,5.66
10.796,0.36,-1.95,-0.62,2.08
10.806,-2.24,-0.18,1.00,2.46
10.816,-3.78,0.59,1.90,4.27
10.826,-4.15,-0.66,2.04,4.67
10.836,-4.71,-3.01,1.52,5.79
10.846,-5.13,-5.63,0.97,7.67
10.856,-5.65,-7.68,0.55,9.55
10.866,-6.58,-8.62,-0.99,10.89
10.876,-6.63,-7.50,-4.17,10.84
10.887,-4.15,-3.56,-3.72,6.61
10.897,-2.11,0.28,-0.33,2.15
10.907,-1.02,2.46,2.79,3.86
10.917,-0.01,3.66,3.68,5.19
10.927,0.76,4.61,3.30,5.72
10.937,1.24,5.24,2.75,6.05
10.947,1.75,5.34,2.49,6.15
10.957,2.37,4.95,2.57,6.06
10.967,3.19,3.80,2.88,5.74
10.977,7.07,2.32,3.18,8.09
10.987,7.26,0.57,2.91,7.85
10.997,3.75,-1.36,3.78,5.49
11.007,3.84,-2.38,4.74,6.54
11.017,3.56,-3.05,4.90,6.78
11.028,3.39,-2.91,4.93,6.65
11.038,3.45,-1.99,3.96,5.62
11.048,3.78,-0.99,2.75,4.78
11.058,3.78,-0.09,1.96,4.25
11.068,3.35,0.60,1.55,3.74
11.078,2.87,1.19,1.38,3.40
11.088,2.46,1.75,1.22,3.26
11.098,2.10,2.00,1.18,3.13
11.108,1.75,2.02,1.11,2.89
11.118,1.32,1.72,0.94,2.36
11.128,0.67,1.29,0.73,1.62
11.138,0.24,0.85,0.39,0.96
11.148,0.19,0.51,-0.13,0.56
11.158,0.20,0.31,-0.64,0.74
11.168,0.07,0.20,-0.98,1.01
11.178,-0.18,0.17,-1.24,1.26
11.189,-0.47,0.25,-1.48,1.58
11.199,-0.67,0.31,-1.74,1.89
11.209,-0.75,0.28,-1.84,2.01
11.219,-0.77,0.19,-1.71,1.88
11.229,-0.60,-0.03,-1.46,1.58
11.239,-0.26,-0.23,-1.18,1.23
11.249,0.02,-0.27,-0.97,1.01
11.259,0.33,-0.14,-0.79,0.87
11.269,0.62,0.05,-0.64,0.89
11.279,0.90,0.18,-0.49,1.04
11.289,1.18,0.27,-0.39,1.27
11.299,1.35,0.37,-0.35,1.44
11.310,1.46,0.57,-0.33,1.61
11.320,1.50,0.79,-0.32,1.73
11.330,1.42,0.88,-0.30,1.70
11.340,1.29,0.78,-0.32,1.54
11.350,1.27,0.28,-0.45,1.38
11.360,1.44,-0.43,-0.66,1.64
11.370,1.74,-1.13,-0.88,2.25
11.380,2.21,-1.76,-1.08,3.03
11.390,2.70,-2.39,-1.19,3.79
11.400,2.94,-2.88,-1.17,4.28
11.410,2.84,-3.09,-1.17,4.35
11.420,2.41,-2.73,-1.64,3.99
11.430,2.21,-2.29,-2.80,4.24
11.440,2.32,-2.06,-7.63,8.24
11.451,3.27,-3.82,-19.21,19.85
11.460,4.82,-6.06,-18.39,19.95
11.471,5.17,-5.99,-7.21,10.71
11.481,5.30,-5.81,-0.84,7.91
11.491,6.29,-5.27,-0.20,8.21
11.501,6.29,-2.95,0.58,6.97
11.511,5.50,-1.27,1.90,5.96
11.521,4.83,-0.44,2.68,5.54
11.531,3.80,-0.42,2.49,4.56
11.541,2.73,-1.00,2.60,3.90
11.551,1.78,-1.56,3.50,4.23
11.561,1.44,-2.05,3.60,4.38
11.571,1.51,-2.55,3.90,4.89
11.581,1.70,-3.38,4.59,5.95
11.591,2.38,-4.56,5.44,7.49
11.602,3.33,-5.60,5.84,8.75
11.612,4.14,-5.88,5.50,9.05
11.622,4.92,-4.74,5.43,8.72
11.632,5.01,-3.15,6.09,8.49
11.642,4.85,-1.87,6.66,8.45
11.652,4.32,-0.94,5.46,7.03
11.662,3.92,-0.39,4.28,5.81
11.672,3.23,-0.49,2.43,4.07
11.682,2.56,-0.99,-0.31,2.76
11.692,1.93,-1.67,-2.19,3.36
11.702,1.40,-2.26,-1.53,3.07
11.712,1.04,-2.49,0.54,2.75
11.722,1.12,-2.49,1.71,3.22
11.732,1.45,-2.21,2.10,3.37
11.743,1.80,-2.16,3.08,4.17
11.753,1.70,-2.30,4.54,5.37
11.763,1.27,-2.53,5.60,6.27
11.773,0.49,-2.75,5.78,6.42
11.783,-1.04,-2.65,5.18,5.91
11.793,-2.38,-2.02,4.49,5.47
11.803,-2.91,-1.45,3.60,4.85
11.813,-3.18,-1.00,2.86,4.40
11.823,-3.14,-0.48,2.54,4.07
11.833,-2.84,0.06,2.70,3.91
11.843,-2.25,0.55,3.25,3.99
11.853,-1.81,0.86,3.76,4.26
11.863,-1.55,1.03,4.13,4.53
11.873,-1.59,1.19,4.40,4.82
11.884,-1.78,1.40,4.60,5.12
11.894,-1.90,1.67,4.66,5.30
11.904,-1.78,1.91,4.67,5.35
11.914,-1.53,2.08,4.62,5.30
11.924,-1.41,2.13,4.44,5.12
11.934,-1.36,2.05,4.13,4.80
11.944,-1.52,1.96,3.50,4.29
11.954,-1.79,1.96,2.66,3.76
11.964,-2.00,2.00,1.94,3.42
11.974,-1.96,2.06,1.48,3.21
11.984,-1.64,2.08,1.24,2.93
11.994,-1.02,1.95,0.87,2.37
12.004,-0.38,1.64,0.63,1.79
12.015,0.00,1.26,0.60,1.40
12.024,0.10,0.83,0.39,0.93
12.035,-0.00,0.41,-0.00,0.41
12.045,-0.11,0.07,-0.36,0.38
12.055,-0.03,-0.14,-0.99,1.00
12.065,0.58,-0.32,-2.95,3.02
12.075,2.09,-1.11,-6.77,7.17
12.085,4.26,-3.03,-10.52,11.74
12.095,7.21,-5.73,-9.54,13.26
12.105,9.11,-7.83,-2.58,12.29
12.115,5.87,-8.25,5.08,11.33
12.125,-0.79,-6.06,10.68,12.30
12.135,-6.09,-2.21,10.58,12.40
12.145,-9.75,1.12,-0.56,9.83
12.155,-10.65,3.07,-12.85,16.97
12.165,-4.51,2.33,-0.16,5.08
12.176,-2.74,0.27,11.49,11.81
12.186,-3.88,-1.22,10.78,11.52
12.196,-3.62,-3.24,5.28,7.18
12.206,-2.24,-5.36,0.72,5.85
12.216,-2.35,-6.13,1.20,6.68
12.226,-3.46,-5.68,2.64,7.16
12.236,-3.53,-4.90,3.53,6.99
12.246,-2.58,-3.92,3.73,5.99
12.256,-1.61,-2.91,3.06,4.52
12.266,-0.83,-2.02,2.29,3.16
12.276,-0.30,-1.23,2.44,2.75
12.286,-0.16,-0.64,2.97,3.04
12.296,-0.03,-0.49,3.13,3.17
12.306,0.16,-0.62,2.88,2.95
12.317,0.39,-0.95,2.12,2.36
12.327,0.85,-1.35,1.06,1.91
12.337,1.35,-1.73,0.18,2.20
12.347,1.62,-1.82,-0.18,2.44
12.357,1.75,-1.42,-0.08,2.25
12.367,1.84,-0.64,0.31,1.98
12.377,1.85,0.16,0.60,1.95
12.387,1.78,0.86,0.67,2.08
12.397,1.89,1.30,0.51,2.35
12.407,2.02,1.58,0.23,2.57
12.417,1.96,1.83,-0.07,2.68
12.427,1.89,1.86,-0.29,2.67
12.437,1.73,1.70,-0.27,2.44
12.447,1.58,1.41,-0.08,2.12
12.458,1.47,1.01,-0.11,1.79
12.468,1.25,0.63,-0.28,1.43
12.478,0.94,0.26,-0.43,1.07
12.488,0.58,0.14,-0.58,0.83
12.498,0.26,0.02,-0.67,0.73
12.508,0.09,0.05,-0.71,0.72
12.518,0.15,0.20,-0.74,0.78
12.528,0.26,0.37,-0.82,0.94
12.538,0.37,0.49,-0.99,1.17
12.548,0.19,0.63,-1.31,1.46
12.558,0.13,0.80,-1.38,1.60
12.568,0.32,0.82,-1.28,1.56
12.578,0.49,0.72,-1.12,1.42
12.588,0.53,0.60,-0.88,1.19
12.599,0.58,0.38,-0.63,0.93
12.609,0.39,0.18,-0.44,0.61
12.619,0.15,-0.05,-0.34,0.38
12.629,0.04,-0.13,-0.27,0.30
12.639,-0.06,0.03,-0.28,0.29
12.649,-0.16,0.16,-0.24,0.33
12.659,-0.15,0.24,-0.16,0.33
12.669,0.07,0.34,-0.13,0.37
12.679,0.17,0.48,-0.16,0.53
12.689,0.28,0.59,-0.16,0.68
12.699,0.41,0.61,-0.17,0.75
12.709,0.44,0.55,-0.16,0.72
12.719,0.51,0.44,-0.18,0.70
12.729,0.55,0.28,-0.20,0.65
12.740,0.59,0.04,-0.24,0.64
12.749,0.72,-0.34,-0.38,0.88
12.760,0.88,-0.88,-0.59,1.38
12.770,1.05,-1.48,-0.80,1.98
12.780,1.24,-2.18,-0.98,2.69
12.790,1.47,-3.14,-1.02,3.62
12.800,1.77,-4.29,-0.89,4.73
12.810,2.06,-5.44,-0.69,5.86
12.820,2.24,-6.50,-0.45,6.89
12.830,2.26,-7.56,0.06,7.89
12.840,1.94,-8.44,0.63,8.69
12.850,1.05,-8.91,1.03,9.03
12.860,-0.23,-8.33,1.10,8.40
12.870,-1.56,-6.71,1.11,6.98
12.880,-2.57,-4.51,0.71,5.23
12.891,-3.44,-2.24,-0.89,4.20
12.901,-4.94,-0.41,-5.66,7.53
12.911,-6.05,0.47,-12.83,14.19
12.921,-4.41,0.55,-12.06,12.85
12.931,-2.75,0.30,-7.38,7.88
12.941,-1.85,-0.61,-2.87,3.47
12.951,-1.73,-1.69,0.62,2.50
12.961,-0.65,-2.22,3.20,3.95
12.971,0.40,-1.92,4.77,5.16
12.981,0.91,-1.05,5.95,6.11
12.991,1.22,-0.61,5.97,6.12
13.001,1.76,-0.37,5.42,5.71
13.011,2.31,-0.30,4.45,5.03
13.022,3.28,-0.39,2.82,4.34
13.031,4.11,-0.54,0.91,4.24
13.042,4.32,-0.68,-0.34,4.39
13.052,3.84,-0.75,-0.57,3.95
13.062,2.86,-0.59,-0.58,2.98
13.072,1.98,-0.25,-0.72,2.12
13.082,1.28,0.08,-1.09,1.68
13.092,0.31,0.30,-1.25,1.33
13.102,-0.89,0.41,-0.60,1.15
13.112,-1.92,0.65,0.93,2.23
13.122,-2.07,0.90,2.87,3.66
13.132,-1.98,1.29,3.85,4.52
13.142,-1.60,1.77,3.78,4.47
13.152,-1.07,2.06,3.24,3.99
13.162,-0.79,1.93,2.71,3.41
13.173,-0.92,1.58,2.44,3.05
13.183,-1.20,1.29,2.27,2.87
13.193,-1.31,1.11,2.19,2.79
13.203,-1.27,0.94,2.46,2.92
13.213,-1.15,0.79,2.85,3.17
13.223,-1.15,0.89,3.24,3.55
13.233,-1.04,1.03,3.54,3.83
13.243,-0.99,1.26,3.72,4.05
13.253,-1.12,1.56,3.77,4.23
13.263,-1.37,1.85,3.85,4.49
13.273,-1.54,2.15,4.04,4.83
13.283,-1.54,2.35,4.23,5.08
13.293,-1.45,2.51,4.41,5.27
13.304,-1.22,2.73,4.52,5.42
13.313,-1.00,3.06,4.59,5.61
13.324,-0.83,3.50,4.52,5.78
13.334,-0.79,4.01,4.44,6.04
13.344,-0.84,4.47,4.45,6.37
13.354,-0.97,4.86,4.45,6.66
13.364,-0.99,5.13,4.39,6.82
13.374,-0.91,5.19,4.30,6.80
13.384,-0.91,5.08,4.05,6.56
13.394,-1.01,4.77,3.65,6.09
13.404,-1.15,4.26,2.88,5.27
13.414,-1.12,3.49,0.72,3.74
13.424,0.26,2.14,-6.35,6.71
13.434,3.41,-1.03,-17.77,18.13
13.444,3.73,-6.73,-17.40,19.03
13.454,1.09,-11.34,-6.60,13.16
13.465,-0.27,-12.60,3.71,13.14
13.475,-0.57,-10.94,9.70,14.63
13.485,-0.95,-8.85,7.75,11.80
13.495,-1.81,-6.68,1.00,6.99
13.505,-4.24,-2.14,-2.90,5.57
13.515,-5.03,2.04,-3.79,6.62
13.525,-3.33,3.92,-0.08,5.14
13.535,-1.09,3.95,1.44,4.35
13.545,0.96,1.99,0.84,2.36
13.555,1.91,-1.50,0.92,2.59
13.565,1.47,-4.99,0.23,5.21
13.575,0.24,-7.37,-0.68,7.41
13.585,-1.19,-7.83,0.16,7.92
13.596,-1.92,-5.93,1.21,6.35
13.606,-2.50,-2.68,1.28,3.88
13.616,-2.58,-0.17,0.98,2.76
13.626,-2.33,1.68,0.65,2.95
13.636,-1.87,2.79,0.58,3.41
13.646,-1.41,2.97,0.95,3.42
13.656,-1.32,2.30,1.46,3.02
13.666,-1.43,1.04,1.80,2.53
13.676,-1.35,-0.38,1.84,2.31
13.686,-1.15,-1.55,1.58,2.49
13.696,-0.80,-2.29,1.16,2.69
13.706,-0.25,-2.49,0.86,2.65
13.716,0.37,-2.31,0.74,2.45
13.726,0.85,-1.82,0.79,2.15
13.737,1.05,-1.17,0.82,1.78
13.747,1.02,-0.28,0.77,1.30
13.757,0.98,0.68,0.62,1.34
13.767,0.97,1.51,0.46,1.85
13.777,0.93,2.01,0.35,2.24
13.787,1.02,2.30,0.19,2.52
13.797,1.22,2.28,-0.01,2.58
13.807,1.31,1.99,-0.35,2.41
13.817,1.27,1.42,-0.75,2.05
13.827,1.37,0.75,-0.91,1.81
13.837,1.60,0.22,-0.90,1.85
13.847,1.75,0.11,-0.91,1.98
13.857,1.83,0.31,-0.90,2.06
13.867,1.93,0.59,-0.88,2.20
13.877,2.06,0.93,-1.00,2.47
13.888,2.10,1.31,-1.28,2.79
13.898,2.02,1.58,-1.56,3.00
13.908,1.90,1.73,-1.81,3.15
13.918,1.38,1.96,-1.98,3.11
13.928,0.75,2.04,-1.87,2.87
13.938,0.84,1.86,-1.83,2.74
13.948,1.11,1.35,-2.02,2.67
13.958,0.87,0.91,-2.10,2.45
13.968,0.55,0.64,-2.17,2.33
13.978,0.31,0.31,-2.10,2.14
13.988,0.22,-0.07,-1.96,1.97
13.998,0.30,-0.43,-1.78,1.86
14.008,0.36,-0.77,-1.81,2.00
14.019,0.29,-1.21,-2.05,2.40
14.029,-0.11,-1.58,-2.36,2.84
14.039,-0.31,-1.62,-2.44,2.95
14.049,-0.38,-1.25,-2.25,2.60
14.059,-0.37,-0.82,-1.99,2.18
14.069,-0.37,-0.46,-1.82,1.91
14.079,-0.42,-0.11,-1.71,1.76
14.089,-0.36,0.24,-1.63,1.69
14.099,-0.16,0.32,-1.68,1.72
14.109,0.04,0.23,-1.68,1.70
14.119,0.28,-0.08,-1.53,1.56
14.129,0.54,-0.49,-1.30,1.49
14.139,0.79,-0.78,-1.05,1.53
14.149,1.14,-1.12,-0.95,1.86
14.159,1.74,-1.75,-0.91,2.63
14.170,2.36,-2.61,-0.83,3.61
14.180,2.82,-3.25,-0.63,4.35
14.190,3.02,-3.85,-0.48,4.92
14.200,2.97,-4.94,-0.03,5.77
14.210,2.39,-6.19,0.56,6.66
14.220,0.96,-7.08,1.05,7.22
14.230,-0.24,-7.88,1.24,7.98
14.240,-1.15,-8.25,1.23,8.42
14.250,-1.82,-7.78,1.30,8.10
14.260,-2.37,-6.61,1.46,7.17
14.270,-2.65,-5.17,1.94,6.13
14.280,-2.47,-3.43,2.24,4.79
14.290,-2.37,-1.74,2.18,3.66
14.300,-2.37,-0.48,1.94,3.10
14.311,-2.68,0.36,1.56,3.12
14.320,-3.32,0.80,0.48,3.45
14.331,-4.15,0.46,-4.72,6.30
14.341,-3.46,-0.93,-12.28,12.80
14.351,-1.67,-1.95,-12.90,13.15
14.361,-1.71,-2.52,-7.92,8.48
14.371,-1.83,-2.72,-3.59,4.86
14.381,-1.67,-2.62,1.10,3.29
14.391,-1.25,-2.22,3.55,4.37
14.401,-0.08,-1.34,3.69,3.92
14.411,0.73,-0.69,3.30,3.45
14.421,0.93,-0.41,2.34,2.55
14.431,1.14,-0.54,1.22,1.76
14.441,1.01,-0.48,0.70,1.32
14.452,0.54,-0.22,1.33,1.45
14.462,0.16,0.40,2.23,2.27
14.472,-0.47,1.07,2.43,2.70
14.482,-1.50,1.59,3.19,3.86
14.492,-1.48,2.08,4.30,5.01
14.502,-1.00,2.53,4.35,5.13
14.512,-0.08,2.75,2.51,3.72
14.522,1.07,2.35,0.03,2.58
14.532,1.43,1.41,-0.56,2.08
14.542,0.88,0.45,0.66,1.19
14.552,0.19,-0.18,1.83,1.85
14.562,-0.22,-0.39,2.64,2.68
14.572,-0.21,-0.22,3.46,3.48
14.582,0.16,0.02,4.05,4.05
14.592,0.67,0.27,4.40,4.46
14.603,1.05,0.63,4.12,4.29
14.613,0.89,0.99,3.69,3.92
14.623,0.34,1.35,3.64,3.90
14.633,-0.09,1.72,4.09,4.43
14.643,-0.35,1.99,4.40,4.84
14.653,-0.48,2.29,4.68,5.24
14.663,-0.46,2.59,4.94,5.60
14.673,-0.42,2.82,5.03,5.78
14.683,-0.30,3.03,4.99,5.84
14.693,-0.04,3.22,4.81,5.79
14.703,0.26,3.37,4.55,5.66
14.713,0.44,3.51,4.38,5.64
14.723,0.46,3.71,4.22,5.64
14.734,0.68,3.84,3.99,5.58
14.744,0.94,3.95,3.74,5.52
14.754,1.12,4.00,3.56,5.48
14.764,1.19,4.00,3.47,5.43
14.774,1.11,3.95,3.38,5.32
14.784,1.09,3.89,2.95,5.00
14.794,1.26,3.74,-0.33,3.96
14.804,2.57,2.84,-13.37,13.91
14.814,4.15,0.01,-21.44,21.84
14.824,-1.17,-4.98,-11.76,12.82
14.834,-5.45,-8.15,-2.80,10.19
14.844,-4.72,-8.35,6.80,11.76
14.854,-2.76,-6.95,11.50,13.72
14.864,-1.07,-5.79,7.26,9.35
14.874,-1.09,-4.40,-2.77,5.31
14.884,-3.02,-0.91,-1.92,3.69
14.895,-3.08,2.03,-1.02,3.83
14.905,-2.01,2.87,-1.37,3.76
14.915,-1.00,1.29,1.70,2.36
14.925,-0.53,-0.67,3.51,3.61
14.935,-0.12,-2.19,2.35,3.22
14.945,-0.07,-3.30,-0.16,3.30
14.955,-0.81,-3.89,-0.80,4.06
14.965,-1.73,-4.04,0.42,4.41
14.975,-2.21,-3.34,1.24,4.19
14.985,-2.21,-1.94,1.51,3.31
14.995,-1.94,-0.64,1.59,2.59
15.005,-1.69,0.26,1.76,2.46
15.015,-1.49,0.70,2.07,2.65
15.025,-1.38,0.74,2.42,2.88
15.036,-1.43,0.53,2.62,3.03
15.046,-1.49,0.15,2.58,2.99
15.056,-1.52,-0.40,2.35,2.83
15.066,-1.44,-1.09,1.95,2.66
15.076,-1.18,-1.79,1.74,2.76
15.086,-0.89,-2.30,1.72,3.01
15.096,-0.54,-2.58,1.62,3.10
15.106,-0.19,-2.52,1.49,2.94
15.116,0.31,-2.22,1.17,2.53
15.126,0.74,-1.58,0.72,1.89
15.136,1.14,-0.76,0.25,1.40
15.146,1.38,0.11,-0.12,1.39
15.156,1.50,0.81,-0.32,1.74
15.166,1.52,1.37,-0.34,2.07
15.177,1.44,1.74,-0.38,2.29
15.187,1.19,1.98,-0.45,2.35
15.197,0.99,2.10,-0.39,2.36
15.207,0.73,2.10,-0.15,2.22
15.217,0.56,2.12,-0.07,2.19
15.227,0.53,2.05,-0.11,2.12
15.237,0.58,1.90,-0.19,2.00
15.247,0.80,1.72,-0.41,1.94
15.257,1.01,1.53,-0.76,1.99
15.267,1.13,1.28,-1.10,2.03
15.277,1.09,0.94,-1.45,2.04
15.287,0.99,0.60,-1.79,2.13
15.297,0.86,0.38,-2.14,2.34
15.308,0.70,0.21,-2.35,2.46
15.318,0.58,-0.04,-2.33,2.40
15.328,0.52,-0.34,-2.14,2.23
15.338,0.58,-0.60,-1.80,1.98
15.348,0.62,-0.70,-1.47,1.75
15.358,0.60,-0.59,-1.17,1.45
15.368,0.51,-0.46,-0.97,1.19
15.378,0.44,-0.28,-0.84,0.99
15.388,0.33,-0.08,-0.79,0.86
15.398,0.24,0.15,-0.83,0.87
15.408,0.16,0.29,-0.88,0.95
15.418,0.14,0.29,-0.98,1.04
15.428,0.13,0.19,-1.08,1.10
15.438,0.20,0.09,-1.13,1.15
15.448,0.18,-0.01,-1.08,1.09
15.459,0.03,-0.06,-1.01,1.01
15.469,-0.05,-0.05,-1.01,1.01
15.479,-0.07,-0.04,-1.10,1.11
15.489,-0.03,-0.01,-1.23,1.23
15.499,0.14,-0.04,-1.34,1.35
15.509,0.37,-0.13,-1.48,1.54
15.519,0.57,-0.33,-1.62,1.75
15.529,0.59,-0.73,-1.73,1.97
15.539,0.45,-1.29,-1.86,2.31
15.549,0.32,-1.76,-2.06,2.73
15.559,0.40,-2.22,-2.25,3.19
15.569,0.86,-2.74,-2.21,3.62
15.579,1.34,-3.00,-1.80,3.75
15.589,1.57,-3.29,-1.29,3.87
15.600,1.68,-3.94,-0.61,4.32
15.610,1.65,-5.04,0.15,5.31
15.620,1.28,-6.19,0.74,6.36
15.630,0.14,-6.83,1.12,6.92
15.640,-0.83,-7.16,1.42,7.35
15.650,-1.56,-6.67,1.58,7.03
15.660,-1.97,-5.24,1.56,5.81
15.670,-2.26,-3.42,1.49,4.36
15.680,-2.57,-1.68,1.19,3.29
15.690,-2.75,-0.18,0.44,2.79
15.700,-3.13,0.81,-1.46,3.55
15.710,-3.60,0.69,-5.99,7.02
15.721,-2.72,-0.50,-13.15,13.44
15.730,-1.25,-1.49,-13.11,13.25
15.741,-1.13,-2.17,-8.09,8.46
15.750,-1.27,-2.67,-3.61,4.67
15.761,-0.99,-2.87,0.07,3.04
15.771,-0.42,-2.52,2.56,3.62
15.781,0.17,-1.81,3.64,4.07
15.791,0.35,-1.34,4.14,4.36
15.801,0.15,-0.96,4.11,4.22
15.811,0.19,-0.70,3.64,3.71
15.821,0.46,-0.83,2.20,2.40
15.831,0.72,-0.98,0.49,1.31
15.841,0.88,-1.14,-0.15,1.44
15.851,1.06,-0.99,-0.34,1.49
15.861,0.83,-0.71,-0.23,1.12
15.871,0.78,-0.49,-0.10,0.93
15.882,0.69,-0.24,-0.37,0.82
15.892,0.20,-0.03,-0.96,0.98
15.902,-1.01,0.20,-0.92,1.38
15.912,-2.40,0.66,1.38,2.85
15.922,-2.62,1.44,5.09,5.90
15.932,-1.73,2.05,6.16,6.72
15.942,-0.46,2.14,3.44,4.08
15.952,0.60,1.60,0.65,1.83
15.962,0.38,0.59,0.29,0.76
15.972,-0.44,-0.40,0.69,0.91
15.982,-1.11,-0.99,1.01,1.80
15.992,-1.35,-1.20,1.73,2.50
16.002,-1.05,-1.13,2.68,3.09
16.012,-0.68,-0.74,3.43,3.57
16.023,-0.47,-0.03,4.01,4.04
16.033,-0.65,0.86,4.58,4.70
16.043,-0.76,1.78,5.09,5.44
16.053,-0.79,2.48,5.30,5.91
16.063,-0.85,2.98,5.24,6.08
16.073,-0.84,3.35,4.98,6.06
16.083,-0.84,3.66,4.77,6.07
16.093,-0.75,4.13,4.81,6.38
16.103,-0.48,4.53,5.13,6.86
16.113,-0.08,4.96,5.38,7.32
16.123,0.46,5.38,5.35,7.60
16.133,0.93,5.52,5.00,7.51
16.143,1.36,5.30,4.38,7.01
16.153,1.75,4.83,3.64,6.30
16.163,2.03,4.23,3.00,5.57
16.174,2.09,3.69,2.38,4.86
16.184,1.94,3.26,2.03,4.30
16.194,1.57,2.96,2.10,3.95
16.204,0.96,2.74,2.33,3.72
16.214,0.59,2.59,1.43,3.02
16.224,1.44,2.06,-6.19,6.68
16.234,3.51,0.06,-19.36,19.68
16.244,0.37,-4.73,-17.69,18.31
16.254,-3.64,-9.61,-10.16,14.45
16.264,-4.03,-10.82,0.56,11.56
16.274,-4.56,-9.11,9.90,14.21
16.284,-3.96,-5.90,10.97,13.07
16.294,-3.40,-2.17,5.90,7.15
16.305,-3.89,1.75,-0.47,4.29
16.315,-3.72,4.71,-1.77,6.25
16.325,-2.52,6.01,-1.50,6.68
16.335,-0.73,4.90,-0.82,5.02
16.345,0.65,1.49,1.24,2.05
16.355,1.00,-1.84,2.49,3.25
16.365,1.15,-4.46,2.48,5.23
16.375,0.94,-6.24,0.82,6.36
16.385,0.22,-7.03,-0.28,7.04
16.395,-0.88,-6.56,0.51,6.64
16.405,-1.15,-4.81,1.05,5.05
16.415,-1.04,-2.01,0.86,2.42
16.425,-0.92,0.34,0.49,1.10
16.435,-0.71,1.67,0.71,1.95
16.446,-0.71,2.01,1.66,2.70
16.455,-0.86,1.63,2.49,3.10
16.466,-0.98,0.76,2.73,2.99
16.476,-1.16,-0.49,2.58,2.87
16.486,-1.26,-1.81,2.22,3.12
16.496,-1.15,-2.87,1.76,3.55
16.506,-0.89,-3.54,1.34,3.89
16.516,-0.44,-3.62,1.04,3.80
16.526,0.02,-3.12,0.82,3.22
16.536,0.28,-2.19,0.68,2.31
16.546,0.28,-1.10,0.51,1.24
16.556,0.11,0.03,0.37,0.39
16.566,-0.02,0.97,0.28,1.01
16.576,-0.09,1.67,0.18,1.68
16.586,-0.07,2.12,0.08,2.13
16.597,-0.09,2.27,0.09,2.28
16.607,-0.15,2.20,0.10,2.21
16.617,-0.04,2.07,0.03,2.07
16.627,0.10,1.99,-0.25,2.01
16.637,0.27,1.95,-0.58,2.05
16.647,0.48,1.83,-0.76,2.04
16.657,0.76,1.65,-0.79,1.98
16.667,1.05,1.44,-0.81,1.96
16.677,1.35,1.19,-0.88,2.00
16.687,1.61,0.92,-0.87,2.05
16.697,1.77,0.65,-1.06,2.16
16.707,1.83,0.35,-1.22,2.23
16.717,1.81,0.11,-1.17,2.16
16.728,1.62,-0.16,-1.14,1.98
16.737,1.33,-0.41,-1.07,1.75
16.748,0.82,-0.50,-1.09,1.46
16.758,0.06,-0.43,-1.02,1.11
16.768,-0.56,-0.26,-0.84,1.04
16.778,-1.06,-0.17,-0.74,1.31
16.788,-1.43,-0.15,-0.58,1.55
16.798,-1.55,-0.16,-0.36,1.60
16.808,-1.52,-0.09,-0.31,1.55
16.818,-1.22,0.09,-0.35,1.28
16.828,-0.75,0.29,-0.39,0.89
16.838,-0.51,0.54,-0.43,0.86
16.848,-0.46,0.75,-0.47,1.00
16.858,-0.38,0.97,-0.46,1.14
16.868,-0.20,1.03,-0.42,1.14
16.878,0.07,0.91,-0.35,0.97
16.889,0.32,0.66,-0.26,0.78
16.899,0.54,0.30,-0.33,0.70
16.909,0.66,0.00,-0.56,0.86
16.919,0.87,-0.20,-0.86,1.24
16.929,1.18,-0.36,-1.20,1.72
16.939,1.53,-0.52,-1.63,2.29
16.949,1.89,-0.75,-2.31,3.08
16.959,2.27,-1.00,-3.31,4.14
16.969,2.66,-1.38,-4.62,5.50
16.979,2.98,-1.82,-5.60,6.60
16.989,3.02,-2.27,-5.52,6.69
16.999,2.66,-2.53,-4.47,5.78
17.009,1.90,-2.67,-2.72,4.26
17.020,1.38,-3.20,-1.72,3.89
17.030,1.41,-3.93,-0.64,4.23
17.040,1.45,-4.51,-0.03,4.74
17.050,1.37,-5.13,0.83,5.38
17.060,1.08,-6.00,1.53,6.28
17.070,0.15,-6.71,1.86,6.96
17.080,-1.49,-7.15,2.06,7.59
17.090,-2.55,-7.37,2.23,8.12
17.100,-2.94,-6.87,2.60,7.92
17.110,-2.87,-5.43,2.75,6.73
17.120,-2.70,-3.54,2.90,5.31
17.130,-2.43,-1.45,3.04,4.15
17.140,-2.18,0.51,2.70,3.51
17.150,-2.17,1.83,1.91,3.42
17.161,-2.84,2.32,-1.28,3.88
17.171,-4.26,1.33,-12.61,13.37
17.181,-4.22,-0.54,-20.89,21.32
17.191,-3.22,-1.25,-12.56,13.02
17.201,-2.53,-1.64,-6.62,7.27
17.211,-2.01,-1.74,-1.80,3.21
17.221,-0.21,-1.78,1.92,2.63
17.231,1.13,-1.33,3.69,4.08
17.241,1.98,-0.67,4.77,5.21
17.251,2.03,-0.42,4.53,4.99
17.261,1.73,-0.49,3.37,3.82
17.271,1.47,-0.48,3.02,3.39
17.281,1.49,-0.50,2.58,3.02
17.291,1.53,-0.47,2.20,2.72
17.301,1.46,-0.58,2.27,2.76
17.312,1.02,-1.06,1.47,2.08
17.322,0.76,-1.13,0.83,1.59
17.332,0.22,-1.40,0.64,1.56
17.342,0.08,-1.30,0.09,1.30
17.352,1.36,0.31,-0.15,1.41
17.362,1.83,0.95,0.42,2.10
17.372,1.52,1.47,0.95,2.31
17.382,0.54,1.41,1.55,2.17
17.392,-0.79,0.88,2.33,2.61
17.402,-1.78,0.42,3.06,3.56
17.412,-2.18,0.04,3.70,4.30
17.422,-2.11,-0.27,4.01,4.54
17.432,-1.58,-0.26,3.48,3.83
17.442,-0.89,0.12,2.74,2.88
17.453,-0.02,0.70,2.17,2.28
17.463,0.41,1.00,2.11,2.37
17.473,0.12,0.93,2.26,2.45
17.483,-0.26,1.08,2.40,2.65
17.493,-0.76,1.23,2.74,3.10
17.503,-1.03,1.44,2.93,3.42
17.513,-1.21,1.56,3.09,3.67
17.523,-1.25,1.48,3.35,3.87
17.533,-1.08,1.47,3.71,4.14
17.543,-0.99,1.40,3.91,4.27
17.553,-1.01,1.28,3.93,4.26
17.563,-0.90,1.42,3.96,4.30
17.573,-0.54,1.67,3.70,4.09
17.583,0.07,2.04,3.36,3.93
17.594,0.71,2.53,3.24,4.17
17.604,1.18,3.13,3.37,4.75
17.614,1.29,3.51,3.44,5.08
17.624,1.22,3.95,3.37,5.33
17.634,0.85,3.59,3.31,4.96
17.644,0.13,2.98,3.33,4.47
17.654,-0.41,2.79,3.54,4.53
17.664,-0.55,2.89,3.80,4.80
17.674,-0.55,2.90,3.77,4.79
17.684,-0.48,2.92,3.55,4.62
17.694,-0.31,3.00,3.03,4.27
17.704,-0.18,2.64,1.83,3.22
17.715,-0.07,1.78,-2.41,2.99
17.724,0.03,0.34,-14.85,14.85
17.735,-0.40,-2.73,-18.88,19.08
17.744,-3.58,-8.21,-11.39,14.49
17.755,-5.16,-12.19,-5.22,14.22
17.765,-3.51,-11.76,5.25,13.35
17.775,-1.16,-8.31,10.72,13.62
17.785,0.30,-3.83,7.29,8.24
17.795,-0.05,0.86,0.97,1.30
17.805,-0.20,4.22,1.11,4.37
17.815,0.30,6.37,1.72,6.60
17.825,0.51,7.73,-1.20,7.84
17.835,0.98,5.50,-2.32,6.05
17.845,0.61,-0.02,-0.21,0.64
17.855,-0.75,-3.83,1.54,4.20
17.865,-1.86,-5.93,0.89,6.28
17.876,-2.78,-7.06,-0.34,7.59
17.886,-3.76,-7.00,0.37,7.95
17.896,-4.03,-5.76,1.74,7.24
17.906,-3.29,-4.01,2.58,5.79
17.916,-2.21,-2.36,3.26,4.59
17.926,-1.47,-0.28,2.94,3.30
17.936,-0.57,0.97,0.70,1.32
17.946,-0.06,1.31,-0.25,1.33
17.956,0.22,1.29,-0.18,1.32
17.966,0.23,1.04,0.64,1.25
17.976,-0.12,0.47,1.37,1.45
17.986,-0.56,-0.06,1.62,1.71
17.996,-0.85,-0.43,1.54,1.81
18.006,-0.93,-0.79,1.38,1.84
18.017,-0.86,-1.15,1.21,1.88
18.026,-0.50,-1.31,1.01,1.73
18.037,-0.01,-1.21,0.85,1.48
18.047,0.41,-0.70,0.78,1.13
18.057,0.69,-0.14,0.60,0.92
18.067,0.87,0.09,0.40,0.97
18.077,1.00,0.20,0.22,1.04
18.087,1.13,0.32,-0.07,1.17
18.097,1.28,0.72,-0.36,1.51
18.107,1.42,1.08,-0.70,1.92
18.117,1.47,1.34,-1.05,2.25
18.127,1.54,1.74,-1.07,2.55
18.137,1.56,1.86,-0.92,2.60
18.147,1.60,1.51,-1.24,2.53
18.157,1.48,1.40,-0.96,2.25
18.167,1.31,0.87,-1.21,1.99
18.178,0.96,0.71,-0.82,1.45
18.188,0.56,0.22,-0.51,0.79
18.198,0.27,-0.30,-0.20,0.45
18.208,0.24,-0.67,-0.15,0.72
18.218,0.06,-0.79,-0.49,0.93
18.228,0.21,-0.03,-0.33,0.39
18.238,0.47,0.72,-0.20,0.88
18.248,0.79,1.42,-0.02,1.63
18.258,0.77,1.85,0.28,2.02
18.268,0.55,1.64,0.20,1.74
18.278,0.36,0.95,0.04,1.02
18.288,0.20,0.46,-0.05,0.51
18.299,-0.02,0.33,-0.11,0.35
18.308,-0.24,0.32,-0.12,0.41
18.319,-0.44,0.09,-0.15,0.48
18.329,-0.57,-0.35,-0.26,0.72
18.339,-0.49,-0.50,-0.45,0.83
18.349,-0.36,0.34,-0.53,0.72
18.359,-0.12,0.88,-0.62,1.09
18.369,0.22,0.66,-0.95,1.18
18.379,0.53,0.23,-1.06,1.20
18.389,0.76,-0.18,-0.84,1.14
18.399,0.95,-0.59,-0.41,1.19
18.409,1.09,-0.46,-0.01,1.18
18.419,1.25,0.16,0.16,1.27
18.429,1.41,1.14,0.03,1.81
18.439,1.00,1.11,-0.32,1.52
18.450,0.25,0.13,-0.61,0.68
18.460,-0.56,-0.53,-0.63,1.00
18.470,-1.14,-0.90,-0.50,1.53
18.480,-1.20,-0.80,-0.33,1.48
18.490,-0.98,-0.70,-0.30,1.24
18.500,-0.98,-0.67,-0.59,1.32
18.510,-0.78,-0.05,-0.73,1.07
18.520,-0.99,-0.37,-0.54,1.19
18.530,-0.91,-1.38,-0.20,1.66
18.540,-0.52,-1.34,0.00,1.44
18.550,-1.37,-2.32,1.02,2.88
18.560,-1.43,-2.87,2.04,3.80
18.570,-0.77,-2.49,3.10,4.05
18.581,-0.08,-0.15,3.01,3.02
18.590,0.38,1.57,2.83,3.26
18.601,0.63,2.20,2.31,3.26
18.611,0.70,2.06,1.41,2.60
18.621,0.63,1.67,0.64,1.89
18.631,0.63,1.28,0.09,1.43
18.641,0.60,1.02,-0.19,1.20
18.651,0.60,0.89,-0.20,1.09
18.661,0.74,0.96,-0.16,1.22
18.671,0.93,1.13,-0.10,1.47
18.681,1.07,1.04,0.21,1.51
18.691,1.00,0.79,0.71,1.46
18.701,0.71,0.30,1.26,1.47
18.711,0.40,-0.35,1.75,1.83
18.721,0.60,-0.19,1.88,1.98
18.731,1.20,-0.09,1.27,1.76
18.741,1.47,0.02,0.75,1.65
18.752,1.22,0.40,0.56,1.40
18.762,0.67,0.36,0.56,0.94
18.772,0.03,-0.26,0.61,0.67
18.782,-0.50,-0.79,0.64,1.14
18.792,-0.95,-1.70,0.61,2.04
18.802,-1.43,-2.20,0.48,2.67
18.812,-1.93,-2.31,0.23,3.02
18.822,-2.27,-2.23,0.06,3.19
18.832,-2.40,-2.90,-0.10,3.77
18.842,-2.91,-3.63,-0.08,4.65
18.852,-3.19,-3.62,0.51,4.85
18.863,-3.05,-4.08,0.25,5.10
18.873,-2.86,-4.11,-0.01,5.01
18.883,-2.97,-4.57,-0.38,5.46
18.893,-2.90,-4.18,-0.49,5.11
18.903,-2.53,-3.55,-0.75,4.42
18.913,-2.15,-3.15,-1.00,3.95
18.923,-1.95,-2.36,-1.09,3.25
18.933,-1.84,-1.25,-1.20,2.53
18.943,-1.68,-0.42,-1.46,2.26
18.953,-1.29,-0.08,-0.66,1.45
18.963,-1.38,-0.77,0.37,1.62
18.973,-1.65,-0.62,0.66,1.88
18.983,-0.99,1.10,0.52,1.57
18.993,-0.38,1.36,0.29,1.44
19.003,-0.36,0.93,0.21,1.02
19.013,-0.47,1.03,-0.31,1.17
19.024,0.07,1.11,-0.07,1.12
19.034,0.56,1.13,0.46,1.35
19.044,0.40,0.16,1.04,1.13
19.054,0.57,-0.35,1.10,1.29
19.064,1.05,-0.66,1.47,1.92
19.074,1.50,-0.87,1.78,2.48
19.084,1.61,-1.37,1.98,2.89
19.094,1.50,-1.45,2.21,3.04
19.104,1.27,-0.66,2.14,2.57
19.114,0.71,0.27,2.04,2.18
19.124,0.65,0.51,2.11,2.27
19.134,0.65,-0.14,2.90,2.98
19.144,1.00,-0.66,3.04,3.27
19.154,0.87,-0.61,1.46,1.80
19.165,1.10,-0.14,-0.80,1.37
19.175,0.78,-0.36,-3.27,3.38
19.185,0.24,-1.06,-4.86,4.98
19.195,1.10,-0.23,-4.33,4.48
19.205,2.01,-0.02,-2.65,3.32
19.215,3.15,-1.62,-0.54,3.58
19.225,2.56,-2.02,-1.31,3.51
19.235,0.96,-2.48,-1.92,3.27
19.245,-0.56,-3.28,-2.80,4.35
19.255,-1.15,-3.77,-3.96,5.59
19.265,-0.64,-3.05,-4.55,5.51
19.275,0.23,-1.47,-4.39,4.64
19.285,0.82,-0.11,-4.41,4.48
19.295,1.15,0.99,-4.60,4.84
19.306,1.38,1.92,-3.72,4.41
19.316,1.95,1.07,-0.29,2.24
19.326,2.43,-0.21,1.81,3.04
19.336,2.71,-1.13,2.44,3.82
19.346,2.73,-1.57,2.66,4.13
19.356,3.77,-0.63,3.15,4.95
19.366,5.37,0.32,3.22,6.27
19.376,5.66,0.98,3.59,6.78
19.386,5.40,1.11,4.05,6.84
19.396,5.74,1.51,5.00,7.76
19.406,5.78,1.56,5.06,7.84
19.416,5.38,1.44,4.91,7.43
19.426,4.64,1.54,5.00,6.99
19.436,3.44,1.44,4.55,5.88
19.447,2.16,1.36,4.11,4.84
19.457,0.98,1.40,3.58,3.97
19.467,0.16,1.30,3.09,3.36
19.477,-0.31,1.08,2.66,2.88
19.487,-0.64,1.04,2.31,2.61
19.497,-1.03,1.08,2.13,2.60
19.507,-1.42,1.20,2.15,2.84
19.517,-1.92,1.34,2.10,3.15
19.527,-2.55,1.19,1.81,3.35
19.537,-3.14,0.88,1.38,3.54
19.547,-3.55,0.64,0.78,3.69
19.557,-3.69,0.55,0.20,3.74
19.567,-3.56,0.31,-0.24,3.58
19.577,-3.18,-0.04,-0.52,3.22
19.588,-2.64,-0.23,-0.73,2.74
19.597,-2.23,-0.33,-0.93,2.44
19.608,-2.04,-0.26,-1.19,2.38
19.618,-2.09,-0.26,-1.48,2.57
19.628,-2.26,-0.40,-1.77,2.89
19.638,-2.48,-0.71,-2.12,3.34
19.648,-2.68,-1.11,-2.56,3.87
19.658,-2.90,-1.36,-3.04,4.42
19.668,-3.01,-1.42,-3.51,4.84
19.678,-3.04,-1.37,-3.84,5.09
19.688,-3.08,-1.42,-4.10,5.32
19.698,-3.05,-1.55,-4.29,5.48
19.708,-2.84,-1.75,-4.33,5.46
19.718,-2.51,-1.84,-4.23,5.25
19.729,-2.14,-1.70,-3.96,4.81
19.738,-1.76,-1.55,-2.92,3.75
19.749,0.87,-3.76,12.27,12.87
19.759,3.79,-5.31,16.26,17.52
19.769,-1.76,-2.28,-4.88,5.67
19.779,-2.55,-2.22,-3.91,5.17
19.789,-3.03,-2.01,-2.96,4.69
19.799,-3.47,-2.06,-1.86,4.45
19.809,-3.18,-2.10,-0.78,3.89
19.819,-2.72,-1.84,-0.12,3.28
19.829,-2.72,-1.44,-0.11,3.07
19.839,-2.53,-0.98,-0.61,2.78
19.849,-1.79,-1.25,-1.04,2.42
19.859,-0.23,-1.66,-1.45,2.22
19.870,1.40,-2.93,-2.13,3.88
19.879,2.47,-4.00,-2.52,5.33
19.890,2.22,-4.16,-0.86,4.80
19.900,1.37,-3.98,1.20,4.38
19.910,1.27,-3.39,1.13,3.80
19.920,0.99,-2.83,0.63,3.06
19.930,0.36,-2.75,0.10,2.77
19.940,-0.37,-2.72,-0.74,2.84
19.950,-0.60,-2.61,-1.44,3.04
19.960,-0.16,-2.09,-1.59,2.63
19.970,0.71,-1.28,-1.18,1.88
19.980,1.10,-0.72,-0.99,1.64
19.990,0.44,-1.23,-1.24,1.80
20.000,-0.11,-1.45,-1.09,1.82
20.010,-0.29,-1.30,-0.63,1.48
20.021,-0.30,-1.46,-0.42,1.54
20.031,-0.23,-1.74,-0.28,1.78
20.041,-0.07,-1.86,-0.15,1.87
20.051,-0.22,-1.77,0.25,1.80
20.061,-0.51,-1.29,0.59,1.51
20.071,-0.50,-0.68,0.44,0.96
20.081,-0.26,-0.35,-0.07,0.44
20.091,-0.13,-0.21,-0.29,0.38
20.101,0.20,-0.20,-0.45,0.53
20.111,0.49,-0.07,-0.54,0.73
20.121,0.53,-0.13,-0.43,0.70
20.131,0.38,-0.26,-0.23,0.52
20.141,0.25,-0.37,0.02,0.44
20.152,0.11,-0.47,0.26,0.54
20.161,0.19,-0.64,0.30,0.73
20.172,0.24,-0.88,0.34,0.97
20.182,0.23,-1.06,0.48,1.19
20.192,0.15,-0.93,0.39,1.02
20.202,0.12,-0.61,0.16,0.65
20.212,0.15,-0.36,-0.02,0.39
20.222,0.25,-0.27,-0.16,0.40
20.232,0.27,-0.27,-0.24,0.45
20.242,0.25,-0.44,-0.15,0.53
20.252,0.27,-0.63,0.08,0.69
20.262,0.26,-0.66,0.28,0.76
20.272,0.17,-0.71,0.30,0.79
20.282,0.14,-0.62,0.28,0.70
20.293,0.21,-0.41,0.24,0.52
20.302,0.32,-0.41,0.01,0.52
20.313,0.46,-0.44,-0.15,0.65
20.323,0.69,-0.39,-0.09,0.80
20.333,0.78,-0.32,0.02,0.84
20.343,0.62,-0.31,0.18,0.71
20.353,0.32,-0.44,0.29,0.62
20.363,0.18,-0.39,0.44,0.61
20.373,0.15,-0.28,0.51,0.60
20.383,0.14,-0.22,0.33,0.42
20.393,0.16,-0.15,0.14,0.26
20.403,0.26,-0.09,0.09,0.29
20.413,0.30,-0.05,0.03,0.30
20.423,0.20,-0.19,-0.04,0.28
20.433,0.29,-0.24,-0.02,0.38
20.443,0.33,-0.26,-0.00,0.41
20.454,0.21,-0.32,0.06,0.39
20.464,0.15,-0.32,0.04,0.36
20.474,0.12,-0.32,0.02,0.34
20.484,0.13,-0.33,0.02,0.35
20.494,0.23,-0.17,0.11,0.30
20.504,0.14,-0.13,0.12,0.23
20.514,-0.16,-0.21,0.16,0.30
20.524,-0.30,-0.23,0.18,0.42
20.534,-0.24,-0.28,0.22,0.43
20.544,-0.08,-0.33,0.20,0.39
20.554,-0.05,-0.35,0.26,0.43
20.564,0.12,-0.05,-0.23,0.27
20.575,-0.09,0.04,-0.74,0.74
20.584,-0.27,0.01,-0.64,0.70
20.595,-0.01,0.27,-0.67,0.72
20.605,0.16,0.43,-0.59,0.75
