time,ax,ay,az,atotal
0.000,0.18,-0.51,-0.81,0.97
0.010,-0.12,-0.33,-0.81,0.89
0.020,0.16,-0.39,-0.98,1.06
0.030,0.40,-0.20,-0.93,1.03
0.040,0.33,0.02,-0.55,0.64
0.050,0.24,0.20,-0.10,0.33
0.060,0.35,0.32,0.23,0.52
0.070,0.52,0.30,0.33,0.69
0.081,0.56,0.27,0.33,0.71
0.091,0.56,0.20,0.19,0.62
0.101,0.40,0.18,0.07,0.44
0.111,0.23,0.19,-0.02,0.30
0.121,0.13,0.21,-0.08,0.26
0.131,0.11,0.19,-0.04,0.22
0.141,0.12,0.11,-0.02,0.16
0.151,0.06,0.02,0.06,0.09
0.161,0.03,-0.04,0.12,0.13
0.171,0.05,-0.09,0.14,0.17
0.181,0.08,-0.05,0.19,0.21
0.191,0.16,-0.01,0.25,0.29
0.201,0.17,-0.03,0.27,0.32
0.211,0.07,-0.03,0.29,0.30
0.222,0.05,-0.04,0.28,0.29
0.231,0.06,-0.11,0.27,0.30
0.242,0.05,-0.15,0.33,0.37
0.252,0.03,-0.12,0.39,0.41
0.262,0.01,-0.05,0.46,0.46
0.272,0.08,-0.01,0.47,0.48
0.282,0.12,0.00,0.45,0.46
0.292,0.04,-0.03,0.33,0.33
0.302,-0.01,-0.09,0.09,0.13
0.312,-0.04,-0.11,-0.09,0.15
0.322,-0.08,-0.06,-0.20,0.22
0.332,-0.13,0.02,-0.19,0.23
0.342,-0.11,0.11,-0.04,0.16
0.352,-0.08,0.13,0.05,0.16
0.362,-0.05,0.05,0.00,0.07
0.372,-0.01,-0.06,-0.17,0.18
0.382,-0.07,-0.12,-0.35,0.38
0.393,-0.16,-0.12,-0.45,0.49
0.403,-0.07,-0.07,-0.54,0.55
0.413,-0.13,0.04,-0.64,0.66
0.423,-0.15,0.12,-0.69,0.72
0.433,-0.04,0.16,-0.70,0.72
0.443,-0.05,0.16,-0.58,0.61
0.453,-0.17,0.22,-0.50,0.57
0.463,-0.22,0.33,-0.45,0.60
0.473,-0.09,0.30,-0.25,0.40
0.483,-0.04,0.17,-0.08,0.19
0.493,-0.21,0.09,0.07,0.24
0.503,-0.31,0.01,0.32,0.45
0.513,-0.27,-0.21,0.47,0.58
0.524,-0.15,-0.33,0.53,0.64
0.534,0.05,-0.33,0.55,0.64
0.544,0.08,-0.35,0.36,0.51
0.554,-0.03,-0.23,0.05,0.24
0.564,-0.20,-0.18,-0.09,0.28
0.574,-0.42,-0.28,-0.01,0.50
0.584,-0.27,-0.09,0.08,0.30
0.594,0.10,0.15,0.08,0.20
0.604,0.42,0.31,0.24,0.57
0.614,0.94,0.07,0.36,1.01
0.624,0.97,-0.04,0.22,0.99
0.634,0.40,0.13,0.45,0.61
0.644,0.24,-0.18,0.69,0.75
0.654,0.15,-0.72,0.90,1.16
0.664,-0.25,-1.41,0.90,1.69
0.674,-0.63,-1.87,1.04,2.23
0.685,-0.62,-1.87,1.12,2.26
0.695,-0.56,-1.48,0.38,1.63
0.705,-0.77,-0.40,-1.74,1.95
0.715,-1.37,1.03,-4.33,4.66
0.725,-1.33,1.36,-4.97,5.32
0.735,-0.17,1.16,-3.85,4.03
0.745,0.31,1.08,-2.17,2.44
0.755,0.77,0.59,-0.49,1.08
0.765,1.15,-0.15,1.39,1.81
0.775,1.01,-0.87,0.66,1.49
0.785,-0.06,-1.17,1.23,1.69
0.795,0.02,-1.69,0.70,1.83
0.805,0.19,-1.67,-0.33,1.72
0.815,-0.12,-1.01,-0.85,1.33
0.826,0.31,-0.76,-1.19,1.44
0.836,0.97,-0.77,-1.49,1.94
0.846,1.40,-0.95,-2.36,2.90
0.856,1.38,-1.12,-2.99,3.48
0.866,1.22,-1.32,-3.08,3.57
0.876,1.15,-1.20,-2.51,3.01
0.886,1.31,-1.22,-1.18,2.14
0.896,0.93,-1.55,-0.60,1.90
0.906,-0.65,-1.29,-0.53,1.54
0.916,-1.07,-0.99,-2.13,2.58
0.926,-0.05,-1.39,-3.92,4.16
0.936,0.96,-1.64,-3.41,3.91
0.946,1.75,-1.73,-2.72,3.67
0.956,2.57,-1.80,-2.66,4.11
0.967,3.33,-1.84,-3.01,4.85
0.976,3.45,-2.04,-3.86,5.56
0.987,3.10,-2.57,-4.97,6.39
0.997,2.52,-3.23,-5.48,6.84
1.007,1.74,-3.92,-5.43,6.92
1.017,0.98,-4.43,-5.75,7.32
1.027,0.82,-4.66,-6.52,8.06
1.037,1.34,-4.76,-6.53,8.19
1.047,1.73,-4.85,-6.23,8.09
1.057,1.68,-4.72,-6.18,7.96
1.067,1.30,-4.50,-5.81,7.46
1.077,0.63,-4.46,-4.85,6.62
1.087,-0.22,-4.59,-3.67,5.88
1.097,-0.98,-4.76,-2.81,5.61
1.107,-1.78,-4.87,-2.03,5.57
1.117,-2.25,-4.86,-1.42,5.54
1.128,-2.35,-4.63,-1.02,5.29
1.138,-1.95,-4.52,-0.36,4.93
1.148,-0.74,-4.40,0.78,4.53
1.158,0.71,-3.99,2.74,4.89
1.168,2.33,-3.24,4.97,6.37
1.178,3.12,-2.41,6.69,7.76
1.188,2.71,-2.06,7.17,7.94
1.198,1.74,-1.94,6.57,7.07
1.208,1.49,-1.63,6.49,6.85
1.218,2.48,-1.21,7.26,7.76
1.228,3.79,-0.72,7.87,8.76
1.238,4.83,-0.04,7.88,9.25
1.248,5.52,0.60,7.55,9.37
1.258,6.17,1.19,7.03,9.43
1.268,6.70,1.98,6.66,9.65
1.278,6.74,2.61,6.78,9.91
1.289,6.81,2.86,6.72,9.99
1.299,6.38,2.87,6.00,9.22
1.309,5.23,2.65,4.89,7.63
1.319,4.10,2.52,3.23,5.79
1.329,3.29,2.69,1.38,4.46
1.339,2.95,2.92,-0.12,4.16
1.349,3.04,2.96,-1.19,4.40
1.359,3.61,2.83,-1.64,4.87
1.369,3.89,2.51,-1.59,4.89
1.379,4.17,2.38,-1.79,5.12
1.389,5.08,2.86,-2.97,6.54
1.399,7.06,3.78,-4.64,9.26
1.409,9.20,4.67,-6.44,12.17
1.419,9.43,5.02,-9.64,14.39
1.429,7.41,4.31,-10.04,13.20
1.440,7.34,3.51,-6.61,10.48
1.450,7.65,2.86,-3.78,9.00
1.460,6.89,2.15,-2.30,7.58
1.470,4.47,1.49,-2.02,5.13
1.480,1.20,1.14,-2.81,3.26
1.490,-2.45,0.66,-4.38,5.06
1.500,-5.49,0.17,-5.11,7.51
1.510,-6.64,-0.06,-5.12,8.38
1.520,-6.69,-0.30,-4.18,7.89
1.530,-7.31,-0.89,-1.93,7.61
1.540,-8.82,-0.69,0.52,8.86
1.550,-5.93,1.04,3.70,7.07
1.560,-6.20,-1.27,4.04,7.51
1.570,-10.63,-2.45,4.08,11.64
1.580,-11.58,-2.44,4.54,12.68
1.591,-12.18,-3.51,4.20,13.36
1.601,-12.65,-4.93,4.16,14.20
1.611,-9.61,-5.88,4.03,11.97
1.621,-2.18,-4.96,1.52,5.63
1.631,3.46,-3.83,-1.77,5.46
1.641,6.35,-4.01,-3.48,8.28
1.651,8.08,-3.99,-4.97,10.29
1.661,8.88,-3.22,-4.90,10.64
1.671,9.74,-2.87,-4.18,10.99
1.681,11.49,-2.71,-3.82,12.41
1.691,11.67,-1.67,-0.97,11.83
1.701,8.18,0.92,1.25,8.33
1.711,6.09,1.72,-0.81,6.38
1.721,3.01,6.20,-1.39,7.03
1.732,-0.47,5.07,-3.87,6.40
1.742,-3.19,2.91,-5.09,6.67
1.752,-4.34,1.61,-4.20,6.25
1.762,-4.55,0.40,-1.77,4.89
1.772,-3.83,-0.41,0.90,3.95
1.782,-2.91,-0.26,2.98,4.17
1.792,-2.85,0.50,3.07,4.21
1.802,-4.13,0.04,2.56,4.86
1.812,-5.19,-0.54,2.13,5.63
1.822,-5.49,-1.47,2.06,6.05
1.832,-5.42,-2.12,1.69,6.06
1.842,-5.46,-3.73,1.75,6.84
1.852,-5.42,-5.27,1.76,7.76
1.862,-3.77,-4.66,2.05,6.33
1.872,-0.26,-1.19,2.96,3.20
1.882,3.09,1.77,3.06,4.69
1.893,4.79,2.67,1.42,5.67
1.903,4.33,2.26,0.10,4.88
1.913,2.95,1.26,-0.17,3.21
1.923,1.97,0.73,0.25,2.12
1.933,1.37,-0.41,0.85,1.66
1.943,0.35,-1.79,1.38,2.29
1.953,-0.81,-1.14,1.70,2.20
1.963,-1.21,2.01,2.77,3.63
1.973,-0.40,4.34,3.23,5.43
1.983,0.52,4.83,2.64,5.53
1.993,0.82,5.08,1.04,5.25
2.003,0.96,4.28,-1.19,4.55
2.013,0.90,2.32,-2.66,3.64
2.023,0.51,0.12,-2.80,2.85
2.034,-0.36,-1.51,-1.35,2.06
2.043,-0.65,-2.96,0.21,3.04
2.054,-0.90,-4.95,1.29,5.20
2.064,-1.15,-6.66,1.58,6.94
2.074,-1.40,-7.19,1.69,7.51
2.084,-1.28,-6.97,1.56,7.26
2.094,-0.75,-6.43,0.90,6.54
2.104,0.43,-4.51,0.31,4.54
2.114,2.20,0.20,-0.41,2.25
2.124,3.20,4.02,-1.12,5.26
2.134,2.81,1.69,-0.97,3.42
2.144,1.65,-1.66,-0.61,2.42
2.154,0.83,-2.77,-0.36,2.92
2.164,0.67,-2.34,0.05,2.44
2.174,0.73,-1.29,0.46,1.55
2.184,0.71,-0.33,0.63,1.00
2.195,0.52,-0.03,0.56,0.77
2.205,0.30,-0.32,0.53,0.69
2.215,0.30,-0.16,0.61,0.70
2.225,0.34,0.54,0.68,0.94
2.235,-0.11,0.62,0.71,0.95
2.245,-0.61,0.78,0.74,1.23
2.255,-0.92,1.16,0.86,1.71
2.265,-1.19,1.34,0.71,1.93
2.275,-1.26,1.29,0.35,1.83
2.285,-1.23,0.89,-0.03,1.52
2.295,-1.53,0.14,-0.39,1.58
2.305,-1.47,-0.30,-0.58,1.61
2.315,-1.35,-0.92,-0.61,1.74
2.325,-0.93,-1.25,-0.53,1.64
2.336,-0.65,-1.96,-0.44,2.11
2.346,0.05,-1.98,-0.35,2.01
2.356,0.84,-1.63,-0.28,1.86
2.366,1.52,-0.87,-0.13,1.76
2.376,1.60,-0.30,0.04,1.63
2.386,1.02,-0.19,0.12,1.04
2.396,0.36,-0.33,0.13,0.51
2.406,-0.14,-0.40,-0.01,0.43
2.416,-0.28,-0.17,-0.16,0.37
2.426,-0.26,0.22,-0.25,0.42
2.436,-0.32,0.35,-0.30,0.56
2.446,-0.39,0.31,-0.34,0.60
2.456,-0.38,0.20,-0.34,0.55
2.466,-0.24,0.47,-0.42,0.67
2.476,-0.14,0.93,-0.63,1.13
2.486,-0.14,1.17,-1.00,1.55
2.497,-0.09,1.11,-1.49,1.86
2.507,0.07,0.86,-1.65,1.86
2.517,-0.11,-0.12,-1.52,1.53
2.527,0.06,-0.44,-1.29,1.36
2.537,0.78,0.31,-0.31,0.90
2.547,0.46,0.17,1.14,1.25
2.557,0.05,0.04,1.23,1.23
2.567,-0.15,0.38,0.42,0.59
2.577,-0.08,0.47,-0.54,0.72
2.587,-0.06,0.41,-1.19,1.26
2.597,-0.12,0.34,-1.56,1.60
2.607,0.06,0.17,-1.74,1.75
2.617,0.32,0.18,-1.60,1.64
2.627,0.32,0.22,-1.31,1.36
2.638,0.15,0.14,-1.05,1.07
2.648,-0.22,-0.07,-1.06,1.08
2.658,-0.60,-0.17,-1.21,1.36
2.668,-0.95,-0.27,-1.35,1.67
2.678,-0.90,-0.42,-1.33,1.66
2.688,-0.46,-0.23,-1.14,1.25
2.698,0.00,0.02,-0.78,0.78
2.708,0.20,0.15,-0.25,0.35
2.718,0.16,0.19,0.19,0.31
2.728,0.16,0.17,0.34,0.41
2.738,0.13,0.09,0.33,0.37
2.748,0.06,-0.06,0.21,0.23
2.758,0.05,-0.17,0.04,0.19
2.768,0.19,-0.14,0.07,0.24
2.778,0.59,0.16,0.13,0.63
2.789,1.03,0.49,0.10,1.14
2.799,1.24,0.47,0.06,1.33
2.809,1.16,0.04,0.07,1.16
2.819,0.96,-0.51,0.14,1.10
2.829,0.83,-0.89,0.16,1.23
2.839,0.90,-1.00,0.07,1.35
2.849,1.13,-0.81,-0.05,1.39
2.859,1.32,-0.47,-0.21,1.41
2.869,1.33,-0.23,-0.38,1.40
2.879,1.16,-0.17,-0.60,1.32
2.889,0.81,-0.22,-0.97,1.28
2.899,0.57,-0.25,-1.29,1.43
2.909,0.43,-0.16,-1.36,1.44
2.919,0.40,-0.04,-1.24,1.30
2.929,0.38,0.09,-1.01,1.08
2.939,0.42,0.19,-0.82,0.94
2.949,0.56,0.17,-0.63,0.86
2.960,0.72,0.19,-0.45,0.87
2.970,0.77,0.31,-0.32,0.89
2.980,0.78,0.41,-0.27,0.92
2.990,0.74,0.34,-0.27,0.86
3.000,0.80,0.26,-0.22,0.87
3.010,0.90,0.27,-0.18,0.96
3.020,0.90,0.38,-0.20,1.00
3.030,0.71,0.42,-0.31,0.89
3.040,0.41,0.33,-0.44,0.69
3.050,0.15,0.07,-0.56,0.59
3.060,0.03,-0.22,-0.75,0.78
3.070,0.01,-0.26,-0.92,0.96
3.080,0.11,-0.18,-1.05,1.07
3.091,0.17,-0.01,-1.15,1.16
3.100,0.13,0.17,-1.21,1.23
3.111,0.06,0.23,-1.33,1.35
3.121,0.05,0.18,-1.44,1.45
3.131,0.05,0.16,-1.58,1.59
3.141,0.15,0.11,-1.67,1.68
3.151,0.25,0.10,-1.76,1.78
3.161,0.41,0.12,-1.91,1.95
3.171,0.75,0.01,-1.98,2.12
3.181,1.07,-0.09,-2.09,2.35
3.191,1.35,-0.11,-2.27,2.64
3.201,1.49,-0.19,-2.40,2.83
3.211,1.60,-0.32,-2.38,2.88
3.221,1.62,-0.41,-2.27,2.81
3.231,1.57,-0.40,-2.17,2.71
3.242,1.39,-0.33,-2.14,2.57
3.251,1.15,-0.28,-2.11,2.42
3.262,0.90,-0.29,-1.98,2.20
3.272,0.62,-0.29,-1.86,1.99
3.282,0.44,-0.35,-1.75,1.84
3.292,0.40,-0.43,-1.63,1.73
3.302,0.42,-0.63,-1.49,1.67
3.312,0.46,-0.98,-1.37,1.75
3.322,0.43,-1.46,-1.24,1.97
3.332,0.33,-1.99,-1.15,2.32
3.342,0.22,-2.38,-1.10,2.63
3.352,0.14,-2.58,-1.12,2.82
3.362,0.10,-2.74,-1.22,3.00
3.372,0.32,-2.71,-1.35,3.04
3.382,0.65,-2.40,-1.49,2.90
3.392,0.75,-2.25,-1.69,2.91
3.403,0.78,-2.13,-1.88,2.95
3.413,1.02,-1.98,-2.18,3.12
3.423,1.34,-1.88,-2.59,3.47
3.433,1.61,-1.94,-3.26,4.12
3.443,1.76,-2.36,-4.33,5.23
3.453,1.90,-3.34,-5.90,7.04
3.463,2.31,-4.34,-7.62,9.07
3.473,2.70,-4.28,-8.80,10.15
3.483,2.69,-3.39,-8.75,9.76
3.493,1.92,-2.12,-7.30,7.84
3.503,0.22,-0.81,-5.15,5.22
3.513,-0.87,-0.71,-3.11,3.30
3.523,-1.15,-0.12,-0.73,1.37
3.533,-1.59,0.42,0.93,1.89
3.544,-2.09,-0.26,1.17,2.41
3.554,-2.03,-1.12,1.08,2.56
3.564,-1.78,-1.58,1.84,3.01
3.574,-1.58,-1.94,2.43,3.49
3.584,-1.25,-2.01,2.87,3.72
3.594,-0.91,-2.11,3.41,4.11
3.604,-1.06,-2.34,3.40,4.26
3.614,-1.24,-2.51,2.82,3.97
3.624,-1.37,-2.64,1.94,3.55
3.634,-1.36,-2.44,1.03,2.98
3.644,-1.14,-2.03,0.11,2.33
3.654,-1.00,-1.45,-0.47,1.82
3.664,-1.00,-0.87,-0.70,1.50
3.674,-0.98,-0.32,-0.47,1.13
3.684,-0.55,0.24,0.36,0.70
3.694,-0.10,0.47,1.37,1.46
3.705,-0.46,0.82,2.48,2.65
3.715,-0.55,1.19,3.22,3.47
3.725,-0.45,1.56,3.28,3.66
3.735,-0.22,1.96,3.28,3.83
3.745,-0.15,2.23,3.22,3.92
3.755,-0.32,2.34,3.14,3.93
3.765,-0.58,2.38,3.14,3.98
3.775,-0.94,2.65,3.31,4.34
3.785,-1.40,3.02,3.43,4.78
3.795,-1.48,3.15,3.72,5.09
3.805,-1.25,3.03,3.97,5.15
3.815,-1.04,3.07,4.03,5.17
3.825,-0.64,3.00,3.43,4.60
3.835,-0.03,2.88,3.07,4.21
3.846,0.21,2.95,2.99,4.21
3.856,0.13,3.18,3.22,4.52
3.866,0.02,3.40,3.54,4.91
3.876,0.10,3.47,3.71,5.08
3.886,0.18,3.63,3.69,5.18
3.896,0.09,3.85,3.60,5.27
3.906,-0.09,3.97,3.59,5.35
3.916,-0.18,4.01,3.55,5.36
3.926,-0.06,3.88,3.25,5.07
3.936,0.26,3.57,2.73,4.51
3.946,0.65,2.91,1.91,3.54
3.956,1.16,1.65,0.37,2.05
3.966,1.79,-0.24,-2.42,3.02
3.976,2.17,-2.99,-7.66,8.50
3.986,2.51,-7.93,-19.46,21.16
3.996,2.42,-13.82,-27.29,30.68
4.007,2.17,-16.03,-21.44,26.86
4.017,0.70,-13.10,-8.76,15.78
4.027,-1.24,-7.31,-0.09,7.42
4.037,-2.10,-2.89,0.91,3.69
4.047,-1.60,0.78,-0.21,1.80
4.057,-1.05,3.82,-0.96,4.07
4.067,-0.95,5.92,-0.47,6.01
4.077,-1.17,6.81,1.19,7.01
4.087,-2.61,5.70,3.67,7.26
4.097,-4.57,3.28,6.86,8.87
4.107,-6.61,1.02,8.21,10.59
4.117,-9.34,-0.54,7.76,12.15
4.127,-11.70,-1.89,6.04,13.30
4.137,-12.87,-3.53,-1.00,13.39
4.147,-6.45,-2.02,1.25,6.88
4.158,-2.10,1.00,5.78,6.23
4.168,-0.59,2.55,5.90,6.45
4.178,0.37,3.14,4.57,5.55
4.188,0.87,3.23,3.56,4.89
4.198,1.07,2.69,2.94,4.13
4.208,0.76,1.51,2.88,3.34
4.218,0.01,-0.21,3.06,3.07
4.228,-0.63,-2.11,3.57,4.20
4.238,-0.59,-3.58,4.10,5.48
4.248,-0.01,-4.25,4.35,6.08
4.258,0.93,-4.03,4.46,6.08
4.268,2.04,-3.44,4.06,5.70
4.278,2.38,-2.56,3.15,4.71
4.289,2.37,-1.49,2.36,3.66
4.298,2.44,-0.41,1.81,3.07
4.309,2.66,0.53,1.32,3.02
4.319,2.97,1.36,0.97,3.41
4.329,3.31,1.94,0.52,3.87
4.339,3.72,2.35,-0.01,4.40
4.349,3.84,2.19,-0.69,4.47
4.359,3.78,1.47,-1.42,4.29
4.369,3.49,0.57,-2.21,4.17
4.379,2.80,-0.17,-3.02,4.12
4.389,1.89,-0.68,-4.45,4.88
4.399,0.98,-0.96,-5.18,5.36
4.409,0.86,-1.19,-4.29,4.53
4.419,1.26,-1.00,-2.97,3.38
4.429,0.94,-0.58,-2.04,2.32
4.439,0.11,-0.26,-2.06,2.08
4.450,-0.17,-0.02,-2.21,2.22
4.460,-0.00,0.18,-2.22,2.23
4.470,0.21,0.22,-2.12,2.14
4.480,0.39,0.14,-2.00,2.05
4.490,0.37,0.03,-1.94,1.97
4.500,0.30,-0.05,-1.89,1.91
4.510,0.27,-0.07,-1.85,1.87
4.520,0.20,-0.20,-1.80,1.83
4.530,0.07,-0.46,-1.71,1.77
4.540,-0.08,-0.74,-1.61,1.77
4.550,-0.30,-1.03,-1.53,1.87
4.560,-0.52,-1.33,-1.48,2.05
4.570,-0.57,-1.55,-1.44,2.19
4.580,-0.47,-1.68,-1.40,2.24
4.590,-0.31,-1.62,-1.29,2.09
4.600,-0.14,-1.62,-1.29,2.08
4.611,-0.10,-1.61,-1.47,2.18
4.621,-0.13,-1.72,-1.69,2.41
4.631,-0.13,-1.91,-1.95,2.74
4.641,0.04,-2.36,-2.37,3.34
4.651,0.37,-2.98,-2.90,4.18
4.661,0.72,-3.37,-3.29,4.76
4.671,-0.22,-3.60,-9.35,10.02
4.681,-3.72,-4.54,-23.31,24.04
4.691,-3.26,-6.27,-18.19,19.52
4.701,-1.98,-6.69,-9.28,11.61
4.711,-1.19,-5.93,-3.79,7.14
4.721,0.35,-4.32,-1.27,4.51
4.731,1.56,-3.17,1.05,3.68
4.741,1.82,-2.83,2.43,4.16
4.752,1.87,-2.23,2.44,3.80
4.762,1.71,-1.64,2.62,3.53
4.772,1.42,-1.64,3.22,3.88
4.782,0.84,-1.90,4.06,4.56
4.792,-0.30,-2.34,5.43,5.92
4.802,-1.38,-2.87,6.90,7.60
4.812,-2.53,-3.51,7.49,8.65
4.822,-3.37,-3.94,6.95,8.67
4.832,-3.80,-3.88,6.04,8.12
4.842,-3.93,-3.41,5.18,7.34
4.852,-4.34,-2.54,4.49,6.74
4.862,-4.16,-1.64,1.19,4.63
4.872,-2.70,-0.20,-1.94,3.33
4.882,-1.33,1.61,-0.97,2.30
4.892,-0.89,2.48,0.51,2.68
4.902,-0.36,2.93,-0.10,2.96
4.913,-0.03,2.97,-1.46,3.31
4.923,-0.48,2.56,-0.39,2.63
4.933,-0.09,2.62,1.75,3.16
4.943,0.47,2.79,3.37,4.40
4.953,0.57,2.80,3.92,4.86
4.963,0.61,2.80,4.70,5.50
4.973,0.29,2.93,5.83,6.53
4.983,-0.30,3.18,6.83,7.54
4.993,-0.65,3.41,7.33,8.11
5.003,-0.85,3.72,7.17,8.12
5.013,-0.92,3.87,6.67,7.77
5.023,-0.81,4.03,5.89,7.18
5.033,-0.47,4.20,5.12,6.63
5.043,-0.04,4.23,4.64,6.27
5.054,0.26,4.14,4.35,6.01
5.064,0.53,3.84,4.32,5.81
5.074,0.78,3.40,4.56,5.74
5.084,1.00,2.97,4.85,5.78
5.094,1.11,2.60,5.02,5.76
5.104,1.24,2.34,4.90,5.56
5.114,1.32,2.18,4.52,5.19
5.124,1.47,1.97,3.98,4.68
5.134,1.52,1.54,3.20,3.86
5.144,1.54,0.70,1.78,2.45
5.154,1.99,-0.71,-1.28,2.47
5.164,2.80,-3.22,-8.32,9.35
5.174,2.65,-8.74,-23.86,25.55
5.184,-0.21,-15.60,-33.12,36.61
5.195,-1.97,-17.72,-24.30,30.14
5.204,-3.54,-14.20,-9.76,17.59
5.215,-4.42,-8.00,-0.79,9.17
5.225,-4.27,-3.21,1.47,5.54
5.235,-3.48,0.17,1.63,3.85
5.245,-2.15,3.15,0.59,3.86
5.255,-1.54,5.73,-0.13,5.93
5.265,-2.03,7.10,1.13,7.47
5.275,-3.90,6.64,4.55,8.95
5.285,-6.21,4.37,8.24,11.20
5.295,-8.16,2.22,9.28,12.55
5.305,-9.58,1.15,8.71,13.00
5.315,-9.80,1.63,6.29,11.76
5.325,-9.53,1.95,-4.71,10.81
5.335,-4.78,1.58,-2.17,5.48
5.345,-1.54,2.11,6.23,6.75
5.355,0.10,2.53,7.54,7.95
5.365,0.79,2.46,5.54,6.11
5.376,0.98,1.87,3.93,4.46
5.386,1.41,1.01,3.39,3.80
5.396,1.60,-0.49,3.46,3.85
5.406,1.28,-2.31,3.70,4.55
5.416,0.69,-4.03,3.84,5.61
5.426,0.36,-5.15,3.76,6.39
5.436,0.80,-5.50,3.90,6.79
5.446,1.76,-5.04,3.88,6.60
5.456,2.51,-4.12,3.63,6.04
5.466,2.90,-2.87,2.93,5.03
5.476,3.13,-1.62,2.23,4.17
5.486,3.54,-0.39,1.75,3.96
5.496,3.85,0.70,1.40,4.16
5.507,4.18,1.48,1.10,4.58
5.516,4.41,2.15,0.81,4.97
5.527,4.58,2.52,0.45,5.25
5.537,4.61,2.23,-0.20,5.12
5.547,4.26,1.52,-1.02,4.63
5.557,3.66,0.65,-1.83,4.14
5.567,2.81,0.05,-3.53,4.51
5.577,1.62,-0.47,-5.16,5.43
5.587,1.19,-1.04,-4.85,5.10
5.597,1.88,-1.07,-3.77,4.35
5.607,2.37,-1.10,-2.65,3.72
5.617,1.73,-0.84,-2.08,2.83
5.627,0.94,-0.31,-1.82,2.07
5.637,0.36,0.04,-1.75,1.78
5.647,0.07,0.07,-1.80,1.80
5.658,0.16,-0.00,-1.84,1.84
5.668,0.47,-0.01,-1.95,2.00
5.678,0.70,0.03,-1.97,2.09
5.688,0.64,-0.05,-1.89,2.00
5.698,0.44,-0.27,-1.76,1.83
5.708,0.11,-0.55,-1.62,1.72
5.718,-0.29,-0.86,-1.40,1.67
5.728,-0.73,-1.19,-1.16,1.82
5.738,-1.09,-1.46,-1.05,2.10
5.748,-1.23,-1.60,-1.10,2.29
5.758,-1.14,-1.54,-1.25,2.28
5.768,-0.85,-1.40,-1.45,2.19
5.778,-0.64,-1.17,-1.65,2.12
5.788,-0.64,-0.78,-2.03,2.27
5.798,-1.04,-0.49,-2.33,2.60
5.808,-1.64,-0.84,-2.40,3.02
5.818,-1.84,-1.69,-2.67,3.65
5.829,-1.97,-2.64,-5.61,6.51
5.839,-2.83,-3.60,-16.36,16.99
5.849,-2.87,-3.63,-22.81,23.27
5.859,-2.66,-3.47,-15.98,16.56
5.869,-3.54,-5.02,-9.39,11.22
5.879,-2.14,-6.66,-4.84,8.50
5.889,-0.21,-7.06,-2.70,7.56
5.899,0.99,-6.10,-1.01,6.27
5.909,2.04,-4.66,1.46,5.29
5.919,2.58,-3.76,2.41,5.16
5.929,3.05,-3.17,2.37,4.99
5.939,2.92,-2.79,2.88,4.96
5.949,1.90,-2.97,3.52,4.99
5.960,0.86,-3.42,4.79,5.95
5.969,-0.20,-3.94,6.46,7.57
5.980,-1.27,-4.60,7.37,8.78
5.990,-1.94,-5.17,7.58,9.38
6.000,-2.81,-5.19,7.25,9.35
6.010,-3.41,-4.85,6.25,8.62
6.020,-3.45,-3.85,5.25,7.37
6.030,-3.21,-2.36,4.32,5.88
6.040,-2.69,-0.70,1.25,3.05
6.050,-1.59,0.90,-0.75,1.98
6.060,-1.08,1.96,0.09,2.24
6.070,-0.97,2.36,0.68,2.64
6.080,-0.55,2.70,-1.11,2.97
6.090,-0.17,2.87,-2.19,3.61
6.100,0.13,3.00,0.19,3.01
6.111,0.50,2.96,2.36,3.82
6.120,0.39,3.21,3.89,5.06
6.131,0.23,3.44,4.98,6.05
6.141,-0.19,3.51,5.68,6.68
6.151,-0.47,3.84,6.54,7.60
6.161,-0.71,4.00,7.37,8.42
6.171,-0.95,4.06,7.77,8.82
6.181,-1.20,4.30,7.43,8.67
6.191,-1.25,4.55,6.57,8.09
6.201,-0.93,4.70,5.60,7.37
6.211,-0.50,4.75,4.74,6.73
6.221,-0.07,4.69,4.33,6.38
6.231,0.28,4.47,4.46,6.32
6.241,0.43,4.08,4.76,6.28
6.251,0.58,3.59,5.07,6.23
6.262,0.77,3.20,5.15,6.11
6.272,1.01,2.87,5.03,5.88
6.282,1.28,2.55,4.74,5.54
6.292,1.54,2.08,4.27,4.99
6.302,1.65,1.40,3.64,4.24
6.312,1.77,0.28,2.36,2.96
6.322,2.18,-1.37,-0.63,2.66
6.332,3.21,-4.63,-10.84,12.22
6.342,3.40,-12.63,-35.72,38.04
6.352,0.39,-19.71,-39.86,44.47
6.362,-1.66,-18.84,-20.99,28.26
6.372,-3.41,-11.94,-4.02,13.05
6.382,-3.36,-5.43,0.67,6.42
6.392,-2.78,-1.51,1.63,3.56
6.402,-1.86,1.68,1.15,2.76
6.412,-0.29,5.20,-0.31,5.22
6.423,0.71,8.15,-0.45,8.20
6.433,0.51,9.26,2.01,9.49
6.443,-1.26,7.15,5.17,8.91
6.453,-4.57,3.17,7.42,9.28
6.463,-8.94,-0.41,9.02,12.71
6.473,-11.50,-2.65,10.08,15.52
6.483,-11.44,-2.86,9.52,15.15
6.493,-7.04,-1.43,7.36,10.28
6.503,-2.66,-0.18,4.32,5.07
6.513,-0.80,1.03,3.69,3.91
6.523,-0.35,1.67,3.54,3.93
6.533,-0.13,1.80,3.06,3.55
6.543,-0.23,1.27,2.55,2.86
6.553,-0.78,0.12,2.22,2.35
6.563,-1.29,-1.53,2.06,2.87
6.574,-1.61,-3.15,2.17,4.16
6.584,-1.29,-4.15,2.40,4.97
6.594,-0.18,-4.05,2.60,4.81
6.604,1.08,-3.32,2.78,4.47
6.614,2.34,-2.30,3.06,4.49
6.624,3.24,-1.19,3.06,4.61
6.634,3.45,-0.37,2.48,4.27
6.644,3.47,0.32,1.86,3.95
6.654,3.72,0.91,1.39,4.08
6.664,3.97,1.43,0.96,4.33
6.674,4.23,1.89,0.60,4.67
6.684,4.52,2.06,0.02,4.97
6.694,4.73,1.81,-0.90,5.14
6.704,4.92,1.56,-2.57,5.77
6.714,4.82,1.36,-4.61,6.81
6.725,3.98,0.56,-4.80,6.27
6.735,3.14,-0.33,-4.05,5.13
6.745,2.74,-1.01,-3.09,4.25
6.755,2.15,-1.01,-2.36,3.34
6.765,1.33,-0.59,-2.10,2.56
6.775,0.80,-0.19,-2.01,2.17
6.785,0.32,-0.01,-1.96,1.98
6.795,-0.20,-0.34,-2.12,2.16
6.805,-0.58,-0.97,-2.30,2.57
6.815,-0.75,-1.51,-2.28,2.84
6.825,-0.75,-1.79,-2.12,2.88
6.835,-0.66,-1.84,-2.11,2.87
6.845,-0.67,-1.73,-1.96,2.70
6.855,-0.98,-1.63,-1.72,2.56
6.866,-1.29,-1.55,-1.62,2.58
6.876,-1.45,-1.50,-1.61,2.64
6.886,-1.33,-1.46,-1.75,2.64
6.896,-0.85,-1.38,-2.17,2.71
6.906,-0.51,-1.13,-2.75,3.02
6.916,-0.80,-0.77,-3.12,3.31
6.926,-1.42,-0.71,-3.34,3.70
6.936,-1.83,-0.95,-4.79,5.22
6.946,-2.09,-2.04,-8.82,9.29
6.956,-1.65,-3.73,-12.64,13.28
6.966,-1.09,-4.77,-12.29,13.23
6.976,-0.73,-5.63,-9.84,11.35
6.986,-1.24,-6.62,-8.02,10.47
6.996,-0.99,-7.20,-5.72,9.25
7.006,-0.36,-7.06,-4.31,8.28
7.016,0.36,-5.67,-3.32,6.58
7.027,0.64,-4.11,-1.22,4.33
7.037,1.03,-2.95,1.21,3.35
7.047,1.55,-2.25,2.13,3.47
7.057,1.89,-1.80,2.20,3.41
7.067,1.58,-1.82,2.97,3.82
7.077,0.99,-2.07,4.10,4.70
7.087,0.07,-2.50,4.95,5.55
7.097,-1.07,-3.00,6.21,6.98
7.107,-2.10,-3.43,7.39,8.41
7.117,-2.68,-3.67,7.32,8.62
7.127,-3.36,-3.86,6.43,8.21
7.137,-3.78,-3.75,5.26,7.48
7.147,-4.24,-3.21,3.96,6.63
7.157,-4.82,-2.54,0.81,5.51
7.167,-3.82,-0.97,-0.88,4.04
7.177,-2.35,0.92,0.88,2.67
7.188,-1.08,2.59,2.56,3.79
7.198,-0.07,3.43,1.58,3.78
7.208,0.06,3.47,-0.27,3.48
7.218,-0.16,3.33,-0.35,3.35
7.228,0.01,3.28,1.48,3.60
7.238,0.24,3.32,3.32,4.70
7.248,0.26,3.60,4.61,5.86
7.258,0.02,3.61,5.17,6.30
7.268,-0.25,3.53,5.81,6.81
7.278,-0.50,3.65,6.72,7.67
7.288,-0.57,3.75,7.59,8.49
7.298,-0.48,3.86,7.89,8.80
7.309,-0.48,3.95,7.41,8.41
7.318,-0.46,4.04,6.39,7.58
7.329,-0.38,4.22,5.29,6.78
7.338,-0.20,4.36,4.54,6.30
7.349,-0.00,4.38,4.23,6.09
7.359,0.18,4.20,4.44,6.11
7.369,0.31,3.86,4.96,6.29
7.379,0.40,3.49,5.34,6.39
7.389,0.48,3.12,5.33,6.20
7.399,0.62,2.78,4.99,5.75
7.409,0.98,2.42,4.36,5.09
7.419,1.34,1.86,3.51,4.19
7.429,1.58,0.85,2.20,2.84
7.439,1.98,-0.59,-0.26,2.08
7.449,2.68,-3.25,-7.76,8.83
7.459,3.12,-10.96,-32.73,34.66
7.470,0.03,-18.59,-39.69,43.83
7.480,-1.30,-18.74,-21.96,28.90
7.490,-2.46,-12.90,-5.23,14.14
7.500,-3.15,-6.04,2.31,7.19
7.510,-3.05,-1.61,2.83,4.46
7.520,-1.85,1.54,1.48,2.83
7.530,-0.63,4.69,-0.22,4.74
7.540,-0.22,7.46,-0.49,7.48
7.550,-0.64,8.76,1.63,8.93
7.560,-2.62,7.31,5.31,9.40
7.570,-5.54,3.60,9.13,11.27
7.580,-8.91,0.21,9.63,13.13
7.590,-11.50,-1.56,9.06,14.72
7.600,-12.32,-1.90,8.36,15.00
7.610,-9.37,-1.76,1.24,9.62
7.620,-4.02,-1.57,-2.14,4.82
7.631,-1.59,0.38,4.20,4.51
7.641,-0.35,1.89,5.75,6.06
7.651,0.57,2.31,4.40,5.00
7.661,0.75,2.29,2.95,3.81
7.671,0.69,1.75,2.22,2.91
7.681,0.60,0.42,1.96,2.10
7.691,0.20,-1.34,2.14,2.53
7.701,-0.11,-3.06,2.45,3.93
7.711,0.24,-3.99,2.80,4.88
7.721,1.14,-4.06,3.15,5.26
7.731,2.26,-3.51,3.32,5.33
7.741,2.87,-2.62,3.19,5.02
7.751,3.08,-1.58,2.68,4.38
7.761,3.23,-0.54,2.15,3.91
7.771,3.50,0.36,1.69,3.90
7.781,3.80,1.08,1.42,4.19
7.792,4.14,1.60,1.35,4.64
7.802,4.61,1.83,1.08,5.07
7.812,4.89,1.77,0.40,5.22
7.822,4.80,1.43,-0.40,5.03
7.832,4.39,0.88,-1.16,4.62
7.842,3.63,0.30,-1.85,4.08
7.852,2.36,0.02,-3.14,3.92
7.862,1.12,-0.35,-3.91,4.09
7.872,1.09,-0.61,-3.44,3.66
7.882,1.86,-0.58,-2.49,3.16
7.892,1.86,-0.48,-1.79,2.63
7.902,1.21,-0.17,-1.61,2.02
7.912,0.59,-0.03,-1.56,1.66
7.922,0.12,-0.17,-1.61,1.62
7.933,-0.18,-0.58,-1.85,1.95
7.943,-0.21,-1.06,-2.06,2.33
7.953,-0.17,-1.32,-2.17,2.55
7.963,-0.20,-1.43,-2.22,2.65
7.973,-0.38,-1.47,-2.17,2.65
7.983,-0.76,-1.38,-2.06,2.59
7.993,-1.15,-1.24,-1.92,2.56
8.003,-1.38,-1.03,-1.79,2.48
8.013,-1.38,-0.86,-1.75,2.39
8.023,-1.06,-0.75,-1.99,2.37
8.033,-0.84,-0.66,-2.48,2.70
8.043,-0.88,-0.60,-2.85,3.05
8.053,-1.34,-0.62,-2.84,3.20
8.063,-1.79,-0.96,-2.70,3.38
8.074,-1.81,-1.46,-3.14,3.91
8.083,-1.59,-2.29,-5.77,6.41
8.094,-1.60,-3.74,-11.36,12.06
8.104,-1.43,-4.71,-15.62,16.38
8.114,-1.07,-4.32,-14.30,14.98
8.124,-0.96,-4.41,-10.19,11.15
8.134,-1.52,-5.62,-6.60,8.80
8.144,-1.37,-6.82,-4.09,8.07
8.154,-0.95,-7.06,-3.00,7.73
8.164,-0.41,-5.73,-2.17,6.14
8.174,0.42,-4.38,-0.60,4.45
8.184,1.80,-4.06,1.44,4.67
8.194,2.48,-4.23,2.36,5.44
8.204,2.29,-4.20,2.79,5.54
8.214,1.82,-3.82,3.78,5.67
8.224,0.86,-3.59,4.56,5.86
8.235,-0.26,-3.29,5.26,6.21
8.245,-1.35,-2.78,6.16,6.89
8.255,-1.98,-2.19,6.52,7.16
8.265,-2.38,-1.72,6.09,6.76
8.275,-2.62,-1.37,6.49,7.13
8.285,-2.22,-0.87,4.87,5.42
8.295,-2.69,-0.67,3.10,4.16
8.305,-3.68,0.12,1.94,4.16
8.315,-2.81,1.22,-2.98,4.27
8.325,-2.44,1.68,-3.11,4.29
8.335,-1.85,2.47,-1.30,3.35
8.345,-0.32,2.53,-1.46,2.94
8.355,-0.96,2.84,2.13,3.68
8.365,-1.12,3.31,5.37,6.41
8.375,-0.43,3.70,5.41,6.57
8.385,0.00,3.82,5.47,6.67
8.396,0.23,3.66,6.22,7.22
8.406,0.30,3.46,6.94,7.76
8.416,0.02,3.31,7.29,8.00
8.426,-0.39,3.09,7.48,8.10
8.436,-0.64,3.02,7.42,8.04
8.446,-0.72,3.02,7.00,7.66
8.456,-0.64,3.12,6.43,7.18
8.466,-0.53,3.35,5.84,6.75
8.476,-0.32,3.65,5.37,6.50
8.486,-0.07,3.94,5.21,6.53
8.496,0.12,4.16,5.30,6.74
8.506,0.35,4.20,5.40,6.84
8.516,0.59,4.09,5.40,6.79
8.526,0.84,3.87,5.12,6.48
8.536,1.11,3.65,4.65,6.02
8.547,1.41,3.36,3.98,5.39
8.557,1.71,2.78,3.06,4.48
8.567,2.02,1.62,1.66,3.08
8.577,2.66,-0.19,-1.21,2.93
8.587,3.48,-3.55,-10.67,11.77
8.597,2.44,-13.43,-41.19,43.39
8.607,-1.97,-23.09,-46.82,52.24
8.617,-5.21,-21.25,-18.93,28.94
8.627,-6.06,-12.36,-0.34,13.77
8.637,-4.65,-5.29,2.96,7.64
8.647,-3.08,-1.24,2.62,4.23
8.657,-1.37,2.55,1.59,3.30
8.667,0.15,6.72,-0.19,6.72
8.678,0.55,9.67,0.24,9.69
8.687,-0.40,9.58,3.67,10.27
8.698,-3.43,5.18,8.40,10.46
8.708,-8.32,1.24,10.34,13.33
8.718,-11.72,-1.44,11.25,16.31
8.728,-12.26,-2.15,10.50,16.28
8.738,-9.02,-1.38,7.65,11.91
8.748,-4.02,-1.12,3.82,5.66
8.758,-1.06,-0.23,4.36,4.49
8.768,-0.29,0.69,4.95,5.00
8.778,0.24,0.96,4.15,4.27
8.788,0.39,0.83,3.17,3.30
8.798,-0.22,-0.02,2.71,2.72
8.808,-0.94,-1.32,2.67,3.13
8.818,-1.56,-2.57,2.70,4.04
8.828,-1.42,-3.42,2.80,4.64
8.838,-0.36,-3.73,2.91,4.74
8.849,0.79,-3.44,2.77,4.49
8.859,1.72,-2.59,2.74,4.14
8.869,2.61,-1.71,2.78,4.18
8.879,3.43,-0.82,2.59,4.37
8.889,3.94,0.05,2.16,4.50
8.899,4.38,0.66,1.82,4.79
8.909,4.80,1.05,1.53,5.14
8.919,4.94,1.33,1.36,5.29
8.929,4.96,1.66,1.24,5.38
8.939,5.07,1.83,0.79,5.44
8.949,5.03,1.73,0.04,5.32
8.959,4.41,1.45,-1.52,4.88
8.969,3.16,0.78,-3.50,4.78
8.979,2.30,-0.19,-4.00,4.62
8.989,2.08,-0.99,-3.54,4.23
9.000,2.26,-1.63,-2.70,3.88
9.010,1.81,-1.45,-2.00,3.07
9.020,1.16,-0.77,-1.64,2.16
9.030,0.94,-0.22,-1.47,1.76
9.040,0.85,0.23,-1.50,1.74
9.050,0.72,0.38,-1.67,1.86
9.060,0.47,0.04,-2.05,2.11
9.070,0.18,-0.56,-2.28,2.36
9.080,-0.11,-1.12,-2.35,2.61
9.090,-0.33,-1.50,-2.42,2.87
9.100,-0.68,-1.75,-2.42,3.06
9.110,-1.14,-1.93,-2.32,3.23
9.120,-1.56,-2.02,-2.33,3.45
9.130,-1.81,-1.85,-2.55,3.63
9.141,-1.93,-1.45,-2.96,3.82
9.150,-1.82,-1.01,-3.17,3.80
9.161,-1.74,-0.75,-3.51,3.99
9.171,-1.89,-0.32,-5.10,5.45
9.181,-2.45,0.01,-8.38,8.73
9.191,-2.91,-0.52,-10.01,10.44
9.201,-2.04,-1.99,-7.25,7.79
9.211,-1.29,-3.41,-4.92,6.12
9.221,-0.63,-4.21,-4.27,6.03
9.231,0.05,-4.39,-5.04,6.69
9.241,0.39,-4.06,-7.38,8.44
9.251,-0.54,-5.11,-9.33,10.65
9.261,-1.26,-7.00,-9.10,11.55
9.271,-1.05,-7.59,-7.11,10.46
9.281,-0.32,-6.36,-5.04,8.12
9.291,1.01,-4.52,-2.25,5.15
9.302,2.26,-3.55,0.70,4.26
9.312,2.57,-3.07,2.18,4.56
9.322,2.65,-2.95,2.76,4.83
9.332,2.48,-3.16,3.67,5.44
9.342,1.35,-3.32,4.62,5.85
9.352,0.01,-3.80,5.29,6.52
9.362,-1.49,-4.28,6.64,8.04
9.372,-2.67,-4.68,8.15,9.77
9.382,-3.27,-4.91,8.51,10.36
9.392,-4.01,-4.90,7.65,9.93
9.402,-4.39,-4.39,6.18,8.76
9.412,-4.76,-3.21,4.91,7.55
9.422,-4.73,-1.49,1.65,5.23
9.432,-3.61,0.79,-1.01,3.83
9.443,-3.00,2.32,0.09,3.79
9.453,-2.79,3.17,1.96,4.66
9.463,-1.79,3.94,1.00,4.44
9.473,-0.28,4.08,-2.89,5.01
9.483,0.06,3.94,-1.76,4.32
9.493,0.16,3.90,1.38,4.15
9.503,0.56,3.80,3.32,5.07
9.513,0.44,3.78,4.60,5.97
9.523,0.09,3.69,5.28,6.44
9.533,0.08,3.62,6.08,7.08
9.543,0.09,3.71,7.19,8.10
9.553,-0.04,3.88,7.81,8.72
9.563,-0.28,4.03,7.61,8.62
9.573,-0.35,4.23,7.05,8.23
9.583,-0.36,4.44,6.13,7.58
9.594,-0.20,4.48,5.37,7.00
9.604,0.11,4.41,5.11,6.75
9.614,0.45,4.23,5.14,6.67
9.624,0.73,3.97,5.33,6.68
9.634,0.95,3.62,5.56,6.70
9.644,1.07,3.31,5.59,6.59
9.654,1.17,3.05,5.34,6.26
9.664,1.35,2.81,4.91,5.82
9.674,1.64,2.49,4.26,5.20
9.684,1.93,1.92,3.39,4.35
9.694,2.23,0.82,2.03,3.12
9.704,2.69,-0.90,-0.90,2.98
9.714,3.61,-4.13,-10.42,11.78
9.724,2.88,-13.86,-40.96,43.34
9.735,-1.48,-22.41,-45.34,50.60
9.745,-4.31,-19.95,-18.10,27.28
9.755,-6.11,-12.01,-1.36,13.54
9.765,-5.07,-5.15,3.03,7.84
9.775,-3.22,-1.23,2.48,4.25
9.785,-1.40,2.25,1.52,3.05
9.795,0.11,6.07,0.46,6.09
9.805,0.87,9.01,0.68,9.08
9.815,-0.08,9.49,3.27,10.03
9.825,-3.27,5.80,7.00,9.66
9.835,-8.02,1.30,9.56,12.54
9.845,-12.04,-2.01,10.18,15.90
9.855,-13.61,-2.93,9.48,16.85
9.865,-11.16,-1.86,6.36,12.98
9.875,-5.28,-1.04,-0.79,5.44
9.885,-1.21,0.80,2.82,3.18
9.896,-0.31,1.94,5.92,6.24
9.906,0.52,2.55,5.15,5.76
9.916,0.89,2.45,3.69,4.52
9.926,0.62,1.69,2.77,3.31
9.936,0.14,0.31,2.56,2.58
9.946,-0.49,-1.59,2.81,3.26
9.956,-0.96,-3.28,3.04,4.57
9.966,-0.72,-4.37,3.34,5.55
9.976,0.25,-4.47,3.59,5.74
9.986,1.55,-3.84,3.84,5.65
9.996,2.53,-2.78,3.86,5.39
10.006,3.11,-1.55,3.55,4.97
10.016,3.33,-0.36,2.73,4.32
10.026,3.39,0.56,1.90,3.93
10.036,3.72,1.23,1.40,4.16
10.046,4.10,1.67,1.08,4.55
10.056,4.52,1.94,0.80,4.98
10.067,4.86,2.07,0.55,5.31
10.077,5.04,1.92,0.23,5.40
10.087,5.04,1.44,-0.12,5.25
10.097,4.72,0.62,-0.43,4.78
10.107,4.26,-0.36,-0.58,4.31
10.117,3.39,-1.37,-1.23,3.86
10.127,1.75,-2.05,-2.68,3.80
10.137,0.90,-1.82,-3.23,3.82
10.147,1.37,-1.42,-3.02,3.61
10.157,1.95,-1.17,-2.66,3.50
10.167,1.84,-0.72,-2.64,3.30
10.177,1.37,-0.39,-2.74,3.09
10.187,0.88,-0.42,-2.79,2.96
10.197,0.27,-0.67,-2.90,2.99
10.208,-0.12,-1.06,-3.02,3.21
10.217,-0.28,-1.45,-2.98,3.33
10.228,-0.33,-1.74,-2.93,3.42
10.238,-0.46,-1.89,-2.98,3.56
10.248,-0.78,-1.90,-2.93,3.57
10.258,-1.30,-1.71,-3.03,3.71
10.268,-1.88,-1.12,-3.92,4.49
10.278,-2.33,-0.68,-4.89,5.46
10.288,-2.45,-0.69,-5.73,6.27
10.298,-2.63,-0.58,-7.84,8.29
10.308,-2.88,-0.18,-9.74,10.16
10.318,-2.72,-0.06,-8.87,9.27
10.328,-2.28,-0.97,-5.99,6.48
10.338,-1.63,-2.78,-3.81,4.99
10.349,-0.90,-4.13,-3.62,5.56
10.359,-0.65,-4.79,-5.54,7.35
10.369,-0.56,-5.62,-8.34,10.07
10.379,-0.43,-7.18,-9.63,12.01
10.389,-0.30,-7.96,-8.61,11.73
10.399,-0.07,-7.22,-6.04,9.41
10.409,0.28,-5.52,-1.91,5.85
10.419,1.50,-4.39,1.14,4.78
10.429,2.45,-3.41,2.24,4.76
10.439,2.59,-2.90,2.77,4.77
10.449,2.24,-3.11,3.25,5.02
10.459,1.59,-3.62,4.28,5.83
10.469,0.91,-4.12,5.34,6.81
10.479,-0.55,-4.68,6.65,8.15
10.489,-1.83,-5.34,7.90,9.72
10.500,-2.62,-5.60,8.62,10.60
10.510,-3.26,-5.21,7.96,10.06
10.520,-3.55,-4.37,6.47,8.57
10.530,-3.46,-2.99,5.02,6.80
10.540,-3.25,-1.29,2.37,4.22
10.550,-2.44,0.78,-0.67,2.65
10.560,-1.62,2.32,0.08,2.83
10.570,-1.27,3.31,1.63,3.90
10.580,-0.93,4.14,2.65,5.01
10.590,-0.12,4.87,-0.28,4.88
10.600,-0.33,4.62,-1.99,5.04
10.610,-0.41,4.07,0.41,4.11
10.620,-1.02,3.75,3.51,5.23
10.630,-0.87,3.70,3.82,5.39
10.640,-0.72,3.45,3.22,4.77
10.651,-0.59,3.31,4.43,5.56
10.661,-1.04,3.32,6.84,7.68
10.671,-1.51,3.16,8.48,9.18
10.681,-1.40,3.06,8.48,9.13
10.691,-0.98,3.05,7.94,8.56
10.701,-0.58,3.30,6.79,7.58
10.711,-0.30,3.65,5.55,6.65
10.721,-0.04,3.97,4.89,6.30
10.731,0.31,4.18,4.91,6.46
10.741,0.52,4.16,5.21,6.69
10.751,0.43,3.88,5.49,6.73
10.761,0.29,3.60,5.53,6.61
10.771,0.34,3.41,5.27,6.29
10.781,0.61,3.36,4.81,5.89
10.791,0.97,3.17,4.23,5.37
10.801,1.28,2.69,3.50,4.60
10.812,1.58,1.76,2.41,3.38
10.822,2.05,0.25,0.65,2.17
10.832,2.58,-2.10,-3.62,4.91
10.842,4.19,-9.01,-28.62,30.30
10.852,1.72,-21.72,-53.06,57.36
10.862,-2.54,-23.97,-28.91,37.63
10.872,-4.28,-15.86,-5.04,17.18
10.882,-3.87,-6.90,2.14,8.20
10.892,-2.69,-2.29,4.61,5.80
10.902,-1.06,1.07,4.19,4.46
10.912,0.24,4.97,1.58,5.22
10.922,0.70,8.58,-0.16,8.61
10.932,-0.66,9.82,1.13,9.91
10.943,-3.30,6.52,6.38,9.70
10.953,-7.02,2.02,9.85,12.26
10.963,-11.24,-0.65,10.28,15.24
10.973,-13.28,-1.41,9.69,16.50
10.983,-12.22,-0.83,7.27,14.25
10.993,-7.50,-0.57,1.87,7.75
11.003,-2.80,0.16,2.85,4.00
11.013,-1.03,1.26,5.25,5.50
11.023,0.05,1.74,4.84,5.14
11.033,0.89,1.67,3.83,4.27
11.043,1.15,1.20,3.14,3.55
11.053,0.88,0.05,2.92,3.06
11.063,0.06,-1.79,3.09,3.57
11.073,-0.72,-3.42,3.37,4.86
11.083,-0.48,-4.66,3.44,5.81
11.094,0.01,-4.87,3.51,6.00
11.104,0.89,-4.27,3.14,5.38
11.114,2.14,-3.21,3.02,4.91
11.124,3.06,-2.02,2.97,4.72
11.134,3.52,-0.75,2.51,4.39
11.144,3.91,0.35,1.99,4.40
11.154,4.26,1.20,1.57,4.69
11.164,4.48,1.70,1.23,4.95
11.174,4.68,2.00,0.97,5.18
11.184,4.82,1.88,0.46,5.20
11.194,4.81,1.57,-0.25,5.07
11.204,4.75,1.30,-1.57,5.17
11.215,4.46,0.97,-3.12,5.52
11.224,4.02,0.22,-3.41,5.28
11.234,3.47,-0.46,-2.94,4.57
11.244,2.84,-0.85,-2.17,3.67
11.255,2.00,-0.82,-1.53,2.65
11.265,1.27,-0.52,-1.20,1.82
11.275,0.94,-0.10,-1.09,1.44
11.285,0.82,0.21,-1.23,1.49
11.295,0.68,0.26,-1.48,1.65
11.305,0.46,-0.07,-1.70,1.77
11.315,0.20,-0.59,-1.89,1.99
11.325,-0.02,-0.98,-2.00,2.23
11.335,-0.22,-1.17,-2.12,2.44
11.345,-0.49,-1.25,-2.14,2.53
11.355,-0.88,-1.23,-2.06,2.56
11.365,-1.29,-1.29,-1.94,2.66
11.375,-1.62,-1.37,-1.86,2.82
11.385,-1.80,-1.33,-2.03,3.02
11.396,-1.85,-1.14,-2.40,3.24
11.405,-1.78,-1.04,-2.51,3.25
11.416,-1.67,-1.03,-2.45,3.14
11.426,-1.57,-0.86,-2.67,3.21
11.436,-1.50,-0.39,-4.03,4.31
11.446,-1.62,-0.20,-7.40,7.58
11.456,-1.67,-1.70,-9.62,9.91
11.466,-0.67,-3.63,-7.82,8.65
11.476,0.13,-4.66,-5.93,7.54
11.486,0.07,-5.17,-5.80,7.77
11.496,-0.22,-5.58,-6.56,8.61
11.506,-0.49,-6.14,-7.37,9.61
11.516,-0.88,-6.63,-7.66,10.17
11.526,-1.13,-6.16,-7.14,9.50
11.536,-0.95,-3.90,-5.98,7.21
11.546,-0.24,-1.98,-3.62,4.13
11.557,1.02,-1.47,-0.55,1.87
11.567,2.02,-1.31,1.66,2.93
11.577,2.48,-1.13,2.15,3.47
11.587,2.46,-1.10,2.26,3.52
11.597,1.63,-1.53,3.23,3.93
11.607,0.80,-2.00,4.43,4.93
11.617,-0.31,-2.75,5.48,6.14
11.627,-1.81,-3.70,6.90,8.04
11.637,-2.96,-4.49,7.69,9.38
11.647,-3.82,-5.02,6.80,9.28
11.657,-4.58,-4.99,5.28,8.59
11.667,-5.07,-4.33,3.57,7.57
11.677,-4.72,-3.19,-0.22,5.70
11.687,-2.53,-0.74,-1.46,3.01
11.697,-1.13,1.14,0.11,1.61
11.707,-0.93,2.20,0.86,2.54
11.717,-0.62,3.07,-1.08,3.32
11.728,-0.68,3.29,-1.87,3.84
11.738,-0.82,3.12,0.50,3.27
11.748,-0.46,2.87,2.40,3.77
11.758,-0.54,2.95,3.86,4.89
11.768,-0.54,2.98,4.60,5.51
11.778,-0.45,2.83,5.12,5.87
11.788,-0.35,2.89,5.97,6.64
11.798,-0.28,2.96,6.84,7.46
11.808,-0.14,2.99,7.16,7.76
11.818,-0.18,3.11,6.71,7.40
11.828,-0.31,3.42,5.56,6.54
11.838,-0.24,3.74,4.70,6.01
11.848,-0.16,4.03,4.55,6.08
11.859,-0.05,4.24,4.72,6.34
11.868,0.13,4.30,5.05,6.63
11.879,0.45,4.25,5.35,6.85
11.889,0.73,4.07,5.53,6.90
11.899,0.91,3.86,5.54,6.81
11.909,1.06,3.68,5.30,6.54
11.919,1.31,3.53,4.87,6.16
11.929,1.63,3.29,4.31,5.66
11.939,1.88,2.78,3.63,4.94
11.949,2.00,1.84,2.72,3.84
11.959,2.12,0.31,1.01,2.37
11.969,2.51,-1.97,-3.10,4.45
11.979,3.14,-7.29,-19.51,21.06
11.990,0.93,-17.11,-40.80,44.25
12.000,-1.54,-20.90,-30.88,37.32
12.009,-2.77,-16.59,-12.10,20.72
12.020,-3.69,-8.87,-0.32,9.61
12.029,-3.45,-3.33,2.71,5.51
12.040,-2.33,0.24,2.34,3.32
12.050,-1.04,3.44,1.02,3.74
12.060,-0.19,6.58,-0.22,6.59
12.070,-0.25,8.77,0.65,8.79
12.080,-1.60,8.58,3.46,9.39
12.090,-4.55,5.05,7.30,9.97
12.100,-8.51,1.45,9.41,12.77
12.110,-11.63,-0.99,9.37,14.97
12.120,-12.63,-1.89,8.62,15.41
12.130,-11.21,-1.56,4.77,12.28
12.140,-6.65,-1.69,0.05,6.86
12.150,-2.78,-0.12,4.44,5.24
12.161,-1.38,1.20,5.82,6.10
12.171,-0.25,2.13,4.62,5.09
12.181,0.63,2.56,3.24,4.18
12.191,0.97,2.33,2.37,3.47
12.201,1.08,1.52,2.09,2.80
12.211,0.89,-0.01,2.26,2.42
12.221,1.76,-1.89,2.78,3.79
12.231,1.32,-3.52,3.15,4.91
12.241,0.24,-4.26,3.07,5.26
12.251,1.41,-4.26,3.13,5.47
12.261,2.35,-3.38,2.90,5.04
12.271,2.92,-2.41,2.54,4.56
12.281,3.41,-1.42,2.21,4.30
12.291,3.96,-0.59,1.95,4.46
12.301,4.40,0.24,1.66,4.70
12.311,4.73,0.99,1.52,5.06
12.322,4.89,1.45,1.25,5.25
12.331,4.94,1.49,0.64,5.20
12.342,4.80,1.24,-0.15,4.96
12.352,4.51,1.04,-1.73,4.95
12.362,4.05,0.72,-3.62,5.47
12.372,3.28,-0.08,-3.89,5.09
12.382,2.78,-0.73,-3.29,4.37
12.392,2.54,-1.18,-2.44,3.71
12.402,1.74,-1.21,-1.76,2.75
12.412,1.01,-0.95,-1.50,2.04
12.422,0.73,-0.57,-1.47,1.74
12.432,0.55,-0.22,-1.54,1.65
12.443,0.25,-0.19,-1.83,1.86
12.452,0.08,-0.38,-2.18,2.22
12.463,-0.00,-0.61,-2.24,2.32
12.473,0.00,-0.75,-2.17,2.29
12.483,0.09,-0.63,-2.22,2.31
12.493,0.09,-0.37,-2.24,2.27
12.503,-0.10,-0.17,-2.09,2.10
12.513,-0.42,-0.15,-1.88,1.93
12.523,-0.82,-0.40,-1.62,1.86
12.533,-1.25,-0.83,-1.37,2.03
12.543,-1.52,-1.29,-1.42,2.44
12.553,-1.64,-1.67,-1.68,2.88
12.563,-1.63,-1.93,-2.07,3.27
12.573,-1.52,-2.02,-2.22,3.36
12.583,-1.60,-1.82,-2.25,3.31
12.593,-1.98,-1.54,-2.29,3.40
12.603,-2.17,-1.14,-2.95,3.84
12.613,-2.43,-0.74,-6.61,7.08
12.624,-2.83,-1.62,-12.52,12.93
12.634,-2.31,-3.05,-13.90,14.41
12.644,-1.09,-3.55,-10.53,11.16
12.654,0.45,-3.98,-7.97,8.92
12.664,-0.59,-5.36,-7.13,8.94
12.674,-0.88,-7.31,-4.96,8.87
12.684,-0.16,-8.15,-3.55,8.89
12.694,0.46,-7.11,-3.04,7.75
12.704,1.46,-4.65,-2.38,5.42
12.714,2.45,-3.22,-0.43,4.07
12.724,3.07,-2.55,1.61,4.31
12.734,3.25,-2.06,2.40,4.54
12.744,2.65,-1.89,2.56,4.14
12.754,1.39,-2.14,3.40,4.25
12.764,0.29,-2.56,4.66,5.33
12.775,-0.84,-3.15,5.57,6.45
12.785,-1.87,-3.68,6.43,7.63
12.795,-2.82,-3.96,6.96,8.49
12.805,-3.49,-4.00,6.67,8.52
12.815,-3.87,-3.74,5.52,7.71
12.825,-4.42,-3.21,3.27,6.37
12.835,-4.30,-2.14,-0.13,4.81
12.845,-3.08,-0.19,-0.59,3.14
12.855,-2.30,1.31,0.92,2.80
12.865,-1.73,2.35,2.02,3.55
12.875,-0.90,3.30,1.51,3.74
12.885,-0.08,3.97,-0.28,3.98
12.895,0.11,4.16,-0.06,4.17
12.905,0.20,3.82,1.08,3.98
12.915,0.11,3.62,2.53,4.42
12.926,0.05,3.58,3.66,5.12
12.935,-0.05,3.44,4.61,5.75
12.946,0.03,3.31,5.86,6.73
12.956,0.06,3.23,7.03,7.73
12.966,-0.12,3.19,7.80,8.43
12.976,-0.17,3.17,7.86,8.48
12.986,-0.16,3.24,7.33,8.02
12.996,-0.08,3.40,6.37,7.22
13.006,0.10,3.61,5.43,6.52
13.016,0.15,3.77,4.80,6.10
13.026,0.30,3.78,4.68,6.02
13.036,0.38,3.65,5.01,6.21
13.046,0.39,3.42,5.46,6.45
13.056,0.47,3.12,5.69,6.51
13.067,0.64,2.94,5.54,6.30
13.076,0.97,2.86,5.04,5.88
13.087,1.43,2.65,4.42,5.35
13.097,1.76,2.17,3.73,4.66
13.107,1.86,1.31,2.81,3.61
13.117,1.93,-0.03,0.98,2.17
13.127,2.30,-2.22,-4.05,5.17
13.137,3.12,-7.67,-22.95,24.40
13.147,0.83,-16.49,-40.77,43.98
13.157,-1.78,-20.53,-32.12,38.16
13.167,-4.25,-16.66,-12.45,21.23
13.177,-4.98,-8.77,-0.19,10.09
13.187,-4.05,-3.37,2.47,5.82
13.197,-2.69,0.18,2.16,3.45
13.207,-0.77,3.58,1.05,3.81
13.217,0.40,6.89,0.36,6.91
13.228,0.31,9.22,1.36,9.33
13.238,-1.31,8.50,4.44,9.68
13.248,-4.48,4.54,7.60,9.92
13.258,-8.40,0.76,9.34,12.59
13.268,-11.29,-1.53,9.72,14.98
13.278,-11.85,-1.59,8.53,14.68
13.288,-8.81,-1.03,3.10,9.40
13.298,-3.62,-0.31,0.98,3.76
13.308,-1.14,1.52,5.20,5.54
13.318,-0.26,2.39,5.49,6.00
13.328,0.59,2.75,4.20,5.06
13.338,0.77,2.42,3.13,4.03
13.348,0.18,1.19,2.95,3.19
13.358,-0.59,-0.58,3.12,3.23
13.369,-1.61,-2.63,3.29,4.51
13.378,-2.12,-4.46,3.55,6.08
13.389,-1.57,-5.46,3.83,6.85
13.399,-0.12,-5.26,3.70,6.43
13.409,1.24,-4.13,3.50,5.56
13.419,2.34,-2.87,3.47,5.08
13.429,3.05,-1.47,3.08,4.58
13.439,3.28,-0.23,2.46,4.11
13.449,3.54,0.69,2.06,4.15
13.459,4.04,1.27,1.72,4.58
13.469,4.45,1.76,1.42,4.99
13.479,4.78,2.21,1.23,5.41
13.489,4.92,2.36,0.97,5.54
13.499,4.92,2.08,0.45,5.36
13.509,4.78,1.42,-0.24,5.00
13.519,4.26,0.61,-1.58,4.59
13.529,2.86,-0.30,-3.32,4.40
13.540,1.94,-1.10,-3.78,4.39
13.550,1.94,-1.52,-3.47,4.26
13.560,2.33,-1.82,-2.81,4.08
13.570,2.12,-1.53,-2.26,3.46
13.580,1.68,-0.81,-2.13,2.84
13.590,1.31,-0.27,-2.13,2.52
13.600,0.90,-0.16,-2.26,2.44
13.610,0.39,-0.57,-2.64,2.73
13.620,0.21,-1.10,-2.89,3.10
13.630,0.11,-1.41,-2.92,3.24
13.640,0.09,-1.48,-2.87,3.23
13.650,-0.11,-1.47,-2.81,3.18
13.660,-0.44,-1.37,-2.62,2.99
13.670,-0.72,-1.27,-2.41,2.82
13.681,-0.95,-1.11,-2.32,2.74
13.691,-1.10,-0.78,-2.44,2.79
13.701,-1.33,-0.61,-2.47,2.87
13.711,-1.58,-0.77,-2.41,2.98
13.721,-1.89,-0.97,-2.44,3.24
13.731,-2.37,-0.84,-3.15,4.03
13.741,-3.02,-0.42,-5.51,6.29
13.751,-3.43,-0.63,-8.49,9.18
13.761,-2.84,-1.95,-8.84,9.49
13.771,-1.70,-3.21,-6.89,7.78
13.781,-0.45,-4.01,-5.43,6.77
13.791,0.11,-4.98,-5.69,7.56
13.801,-0.14,-6.05,-6.69,9.02
13.812,-0.58,-7.28,-7.31,10.33
13.822,-0.85,-8.00,-6.96,10.64
13.832,-0.49,-6.77,-6.42,9.34
13.842,0.61,-4.09,-4.81,6.34
13.852,1.60,-2.86,-1.67,3.68
13.862,2.25,-2.68,1.06,3.66
13.872,2.78,-2.31,2.33,4.30
13.882,2.84,-1.85,2.63,4.29
13.892,1.85,-1.99,3.24,4.22
13.902,0.90,-2.30,4.12,4.80
13.912,0.15,-2.67,4.86,5.55
13.922,-1.00,-3.31,6.07,6.99
13.932,-2.29,-3.85,7.47,8.71
13.942,-3.24,-4.28,7.99,9.62
13.952,-4.05,-4.48,7.59,9.70
13.962,-4.48,-4.03,6.28,8.70
13.973,-4.77,-3.40,3.29,6.72
13.983,-4.31,-1.77,-0.33,4.67
13.993,-3.00,0.53,-0.37,3.07
14.002,-2.24,1.99,0.90,3.13
14.013,-1.31,3.26,0.43,3.54
14.023,-0.41,4.07,-2.08,4.59
14.033,-0.41,4.18,-1.11,4.35
14.043,-0.09,4.08,1.50,4.35
14.053,0.55,3.77,3.42,5.12
14.063,0.60,3.59,4.32,5.64
14.073,0.62,3.39,4.67,5.80
14.083,0.36,3.25,5.99,6.82
14.093,0.24,3.29,7.32,8.03
14.103,0.07,3.35,8.04,8.70
14.113,-0.11,3.38,8.08,8.76
14.124,-0.24,3.48,7.56,8.33
14.134,-0.21,3.68,6.72,7.66
14.143,-0.11,3.76,5.88,6.98
14.154,0.00,3.87,5.30,6.56
14.164,0.23,3.97,5.13,6.49
14.174,0.46,3.82,5.28,6.53
14.184,0.58,3.52,5.55,6.60
14.194,0.56,3.15,5.74,6.57
14.204,0.63,2.88,5.59,6.32
14.214,0.89,2.65,5.15,5.86
14.224,1.24,2.38,4.47,5.21
14.234,1.53,1.89,3.57,4.32
14.244,1.66,0.93,2.22,2.92
14.254,1.97,-0.54,-0.46,2.10
14.264,2.68,-3.15,-7.67,8.72
14.275,3.18,-10.03,-30.34,32.11
14.285,0.53,-18.29,-41.34,45.21
14.295,-1.19,-19.41,-24.63,31.38
14.305,-2.84,-13.88,-5.91,15.35
14.315,-3.48,-6.83,1.99,7.92
14.325,-3.15,-2.36,2.80,4.83
14.335,-2.18,0.74,2.39,3.32
14.345,-0.96,3.70,1.05,3.96
14.355,-0.27,6.56,0.06,6.56
14.365,-1.11,7.95,1.13,8.10
14.375,-4.25,5.77,4.56,8.49
14.385,-7.79,1.56,8.25,11.45
14.395,-10.94,-1.28,9.52,14.56
14.405,-12.57,-1.85,8.81,15.46
14.415,-11.23,-0.24,4.86,12.24
14.425,-8.37,0.90,-5.68,10.16
14.436,-2.99,2.27,1.12,3.92
14.446,-1.09,2.93,6.26,7.00
14.456,0.45,3.27,5.84,6.71
14.466,1.54,3.63,4.18,5.75
14.476,1.76,3.18,2.82,4.60
14.486,1.47,1.91,2.51,3.48
14.496,1.10,0.11,2.68,2.90
14.506,0.36,-2.07,3.32,3.93
14.516,-0.28,-4.16,4.00,5.78
14.526,-0.39,-5.64,4.49,7.22
14.536,0.24,-5.82,4.85,7.58
14.546,1.60,-4.67,4.57,6.73
14.556,2.35,-3.33,3.76,5.55
14.566,2.83,-1.98,3.00,4.58
14.576,3.37,-0.70,2.42,4.21
14.586,3.89,0.18,1.92,4.34
14.597,4.19,0.85,1.50,4.53
14.607,4.38,1.35,1.20,4.73
14.617,4.58,1.71,1.00,4.99
14.627,4.58,1.81,0.75,4.98
14.637,4.44,1.50,0.26,4.69
14.647,4.17,0.89,-0.39,4.29
14.657,3.84,0.34,-1.16,4.03
14.667,3.25,-0.06,-2.60,4.16
14.677,2.71,-0.58,-3.44,4.42
14.687,2.34,-0.98,-3.25,4.12
14.697,2.34,-1.17,-2.59,3.68
14.707,2.12,-1.05,-1.98,3.08
14.717,1.51,-0.60,-1.77,2.40
14.727,1.04,-0.23,-1.72,2.02
14.738,0.65,-0.12,-1.71,1.83
14.748,0.17,-0.42,-1.84,1.89
14.758,-0.10,-0.95,-2.15,2.35
14.768,-0.16,-1.27,-2.39,2.71
14.778,-0.23,-1.20,-2.56,2.84
14.788,-0.42,-1.04,-2.50,2.74
14.798,-0.84,-0.91,-2.36,2.66
14.808,-1.33,-0.90,-2.26,2.77
14.818,-1.79,-0.84,-2.41,3.12
14.828,-2.16,-0.76,-2.70,3.54
14.838,-2.29,-0.68,-2.81,3.69
14.848,-2.14,-0.83,-2.83,3.65
14.858,-1.66,-1.05,-3.33,3.87
14.868,-1.19,-0.87,-4.94,5.16
14.879,-1.39,-0.48,-7.44,7.59
14.889,-2.20,-0.44,-8.93,9.21
14.899,-2.31,-1.04,-7.91,8.31
14.909,-1.44,-2.13,-5.73,6.28
14.919,-0.55,-3.12,-4.35,5.38
14.929,-0.10,-3.58,-4.45,5.72
14.939,0.17,-3.81,-5.83,6.97
14.949,-0.52,-4.73,-7.92,9.24
14.959,-1.04,-6.42,-8.14,10.41
14.969,-0.73,-7.25,-6.72,9.91
14.979,0.02,-6.35,-5.14,8.16
14.989,1.09,-4.71,-3.10,5.75
14.999,2.33,-4.04,-0.31,4.68
15.009,3.13,-3.89,1.68,5.27
15.019,3.34,-3.50,2.44,5.42
15.029,2.95,-3.43,3.03,5.45
15.040,1.89,-3.72,4.01,5.79
15.050,0.72,-4.02,5.07,6.51
15.060,-0.58,-4.35,6.42,7.77
15.070,-1.88,-4.57,7.87,9.29
15.080,-2.55,-4.46,8.64,10.05
15.090,-2.85,-4.22,7.34,8.94
15.100,-3.41,-3.56,5.93,7.71
15.110,-3.63,-2.49,5.05,6.70
15.120,-3.52,-1.04,2.91,4.68
15.130,-2.82,0.62,0.79,2.99
15.140,-2.18,1.96,1.19,3.16
15.150,-1.89,2.83,2.31,4.11
15.160,-1.53,3.50,1.46,4.09
15.170,-0.21,3.92,-2.73,4.78
15.181,0.09,3.62,-3.12,4.78
15.191,-0.60,3.34,-0.33,3.40
15.201,-0.07,3.24,1.44,3.55
15.211,0.29,3.13,3.25,4.52
15.221,0.34,3.09,4.39,5.38
15.231,0.17,2.95,5.42,6.17
15.241,-0.20,2.89,6.51,7.13
15.251,-0.30,2.87,7.49,8.03
15.261,-0.38,2.86,7.76,8.28
15.271,-0.44,2.87,7.11,7.68
15.281,-0.38,3.02,5.88,6.62
15.291,-0.27,3.21,4.68,5.69
15.301,-0.17,3.47,4.00,5.30
15.311,-0.03,3.65,4.00,5.42
15.321,0.11,3.66,4.43,5.74
15.331,0.09,3.44,4.97,6.04
15.342,0.01,3.07,5.27,6.10
15.352,0.07,2.78,5.18,5.88
15.362,0.34,2.63,4.82,5.50
15.372,0.84,2.54,4.30,5.06
15.382,1.38,2.36,3.72,4.62
15.392,1.70,1.89,3.10,4.00
15.402,1.80,0.95,1.95,2.82
15.412,1.95,-0.53,-0.44,2.07
15.422,2.46,-3.04,-6.66,7.73
15.432,3.59,-8.80,-24.68,26.45
15.442,1.39,-16.00,-34.47,38.03
15.452,-0.93,-18.58,-26.21,32.14
15.462,-2.93,-14.46,-10.51,18.11
15.472,-3.48,-7.17,-0.29,7.98
15.482,-3.20,-2.43,1.85,4.42
15.493,-2.11,0.86,2.11,3.11
15.503,-0.47,4.06,0.88,4.18
15.513,0.12,6.96,0.21,6.96
15.523,-0.69,8.46,1.51,8.62
15.533,-3.12,6.50,4.71,8.61
15.543,-6.33,2.52,7.37,10.04
15.553,-9.67,-0.75,8.33,12.79
15.563,-11.53,-2.74,8.70,14.70
15.573,-11.54,-2.32,7.80,14.12
15.583,-8.29,-1.40,0.98,8.47
15.593,-3.26,-0.75,-1.73,3.77
15.603,-1.15,1.34,4.45,4.79
15.613,0.04,2.65,5.56,6.16
15.623,1.18,3.44,4.05,5.44
15.633,1.43,3.36,2.51,4.43
15.644,1.28,2.41,1.97,3.37
15.653,0.79,0.70,1.94,2.21
15.664,-0.00,-1.32,2.35,2.69
15.674,-0.57,-3.08,2.86,4.24
15.684,-0.39,-4.25,3.10,5.28
15.694,0.53,-4.30,3.40,5.51
15.704,1.69,-3.51,3.53,5.26
15.714,2.39,-2.51,3.30,4.79
15.724,2.74,-1.54,2.87,4.26
15.734,2.92,-0.64,2.40,3.83
15.744,3.18,0.10,2.05,3.79
15.754,3.49,0.58,1.81,3.98
15.764,3.80,0.89,1.58,4.21
15.774,4.06,1.18,1.30,4.42
15.784,4.21,1.37,0.96,4.53
15.794,4.17,1.41,0.50,4.43
15.805,3.90,1.23,0.08,4.10
15.815,3.46,0.82,-0.39,3.58
15.825,2.83,0.44,-0.89,3.00
15.835,1.88,0.30,-1.77,2.60
15.845,1.37,-0.00,-2.29,2.67
15.855,1.71,-0.20,-2.23,2.82
15.865,1.94,-0.53,-1.75,2.67
15.875,1.47,-0.66,-1.26,2.04
15.885,0.84,-0.57,-1.10,1.50
15.895,0.51,-0.51,-1.00,1.23
15.905,0.32,-0.59,-1.08,1.27
15.915,0.24,-0.80,-1.28,1.53
15.925,0.25,-0.83,-1.60,1.82
15.935,0.14,-0.70,-1.90,2.03
15.945,-0.32,-0.55,-2.00,2.10
15.956,-0.83,-0.55,-2.01,2.25
15.966,-1.32,-0.65,-2.14,2.60
15.976,-1.86,-0.85,-2.39,3.15
15.986,-2.32,-1.19,-2.64,3.71
15.996,-2.35,-1.32,-2.80,3.88
16.006,-1.85,-1.25,-3.07,3.79
16.016,-0.81,-1.27,-3.96,4.24
16.026,0.62,-1.24,-6.07,6.23
16.036,1.63,-1.08,-9.04,9.25
16.046,1.01,-1.10,-10.48,10.58
16.056,-0.35,-1.56,-8.69,8.84
16.066,-0.81,-2.51,-5.77,6.35
16.076,-0.61,-3.49,-3.63,5.07
16.086,0.23,-3.83,-2.78,4.74
16.096,0.77,-3.73,-3.28,5.02
16.107,0.52,-2.90,-5.39,6.14
16.117,-0.55,-2.74,-8.60,9.04
16.127,-2.21,-4.91,-9.90,11.27
16.137,-2.40,-7.02,-7.90,10.83
16.147,-1.78,-6.89,-5.65,9.09
16.157,-0.37,-4.87,-3.07,5.77
16.167,1.16,-3.36,0.03,3.56
16.177,2.17,-2.81,1.86,4.00
16.187,2.61,-2.25,2.46,4.23
16.197,2.33,-2.32,3.19,4.59
16.207,1.76,-2.75,4.03,5.18
16.217,1.09,-3.09,5.01,5.99
16.227,-0.37,-3.71,5.93,7.00
16.237,-1.81,-4.49,7.16,8.64
16.248,-2.84,-5.13,8.32,10.18
16.258,-3.84,-5.27,8.09,10.39
16.268,-4.52,-5.04,6.66,9.50
16.278,-4.99,-4.25,4.98,8.23
16.288,-4.96,-3.03,1.88,6.11
16.298,-3.38,-1.06,-0.60,3.59
16.308,-2.07,0.72,0.64,2.28
16.318,-1.03,2.25,1.79,3.05
16.328,0.09,3.21,0.21,3.22
16.338,0.96,3.63,-3.40,5.07
16.348,0.41,3.46,-1.84,3.94
16.358,0.06,3.38,1.36,3.65
16.368,0.40,3.46,3.51,4.95
16.378,0.36,3.67,4.43,5.76
16.388,0.15,3.61,5.25,6.38
16.399,-0.13,3.57,6.13,7.10
16.409,-0.26,3.66,6.92,7.84
16.419,-0.29,3.71,7.45,8.33
16.429,-0.25,3.75,7.12,8.06
16.439,-0.18,3.83,6.24,7.32
16.449,-0.19,4.05,5.18,6.58
16.459,-0.09,4.30,4.50,6.22
16.469,0.09,4.56,4.26,6.24
16.479,0.38,4.65,4.49,6.48
16.489,0.50,4.48,4.87,6.64
16.499,0.27,3.99,5.19,6.55
16.509,0.05,3.42,5.38,6.37
16.519,0.10,2.96,5.32,6.09
16.529,0.45,2.60,5.00,5.66
16.539,0.94,2.30,4.46,5.10
16.549,1.31,1.85,3.73,4.36
16.560,1.47,1.08,2.65,3.22
16.570,1.67,-0.14,0.68,1.81
16.580,1.82,-2.00,-3.63,4.52
16.590,2.47,-6.42,-18.83,20.05
16.600,1.79,-14.65,-38.18,40.93
16.610,-0.54,-19.77,-33.41,38.83
16.620,-3.18,-17.21,-14.20,22.53
16.630,-4.37,-9.88,-0.68,10.82
16.640,-3.65,-4.02,2.79,6.10
16.650,-2.33,-0.10,2.57,3.47
16.660,-0.54,3.30,1.35,3.61
16.670,0.68,6.57,0.26,6.62
16.680,1.11,9.12,0.69,9.21
16.690,0.69,9.97,2.81,10.38
16.700,-1.61,7.55,5.56,9.51
16.711,-5.10,3.66,8.08,10.23
16.721,-9.18,-0.05,9.33,13.09
16.731,-11.75,-3.00,9.01,15.11
16.741,-12.23,-3.89,8.08,15.17
16.751,-9.27,-3.60,2.19,10.18
16.761,-3.99,-3.84,-4.10,6.89
16.771,-1.53,-1.09,2.88,3.44
16.781,-0.59,1.32,5.60,5.78
16.791,0.79,2.74,4.34,5.19
16.801,1.05,3.24,2.67,4.33
16.811,1.14,2.78,1.91,3.56
16.821,0.93,1.51,1.78,2.51
16.831,0.59,-0.20,2.05,2.14
16.841,0.44,-1.87,2.60,3.23
16.851,0.74,-3.07,2.88,4.28
16.862,1.28,-3.65,3.11,4.96
16.872,2.03,-3.41,3.28,5.15
16.882,2.65,-2.62,3.14,4.88
16.892,2.97,-1.74,2.79,4.43
16.902,3.19,-0.93,2.33,4.06
16.912,3.34,-0.27,1.96,3.88
16.922,3.47,0.15,1.75,3.89
16.932,3.65,0.49,1.54,4.00
16.942,3.81,0.86,1.36,4.14
16.952,3.85,1.22,1.21,4.22
16.962,3.69,1.37,0.95,4.05
16.972,3.34,1.13,0.57,3.57
16.982,2.79,0.60,0.13,2.86
16.992,2.27,0.12,-0.30,2.29
17.002,1.62,-0.05,-1.13,1.97
17.013,1.19,-0.14,-2.09,2.41
17.023,1.40,-0.34,-2.25,2.67
17.033,1.84,-0.56,-1.92,2.72
17.043,1.69,-0.45,-1.49,2.30
17.053,1.27,-0.17,-1.28,1.81
17.063,0.97,-0.05,-1.20,1.55
17.073,0.78,-0.15,-1.26,1.49
17.083,0.68,-0.51,-1.37,1.61
17.093,0.54,-0.77,-1.53,1.80
17.103,0.15,-0.91,-1.73,1.96
17.113,-0.40,-1.03,-1.87,2.18
17.123,-1.01,-1.06,-2.07,2.53
17.133,-1.59,-1.04,-2.41,3.07
17.143,-2.08,-1.15,-2.60,3.52
17.154,-2.18,-1.26,-2.67,3.67
17.164,-1.87,-1.38,-2.97,3.77
17.174,-1.37,-1.16,-4.51,4.85
17.184,-1.26,-0.64,-8.28,8.40
17.194,-1.72,-0.25,-11.31,11.44
17.204,-2.08,-0.18,-9.67,9.89
17.214,-1.75,-0.83,-5.86,6.17
17.224,-1.18,-2.11,-3.36,4.14
17.234,-0.34,-3.18,-2.02,3.79
17.244,0.73,-3.82,-1.75,4.27
17.254,1.48,-4.34,-2.22,5.09
17.264,1.95,-4.53,-3.67,6.15
17.274,1.83,-5.28,-6.61,8.66
17.284,0.59,-6.94,-9.72,11.96
17.295,-0.46,-7.27,-9.27,11.79
17.304,-0.62,-5.47,-6.61,8.60
17.315,-0.39,-3.43,-4.22,5.45
17.325,0.62,-2.73,-1.80,3.33
17.335,1.77,-2.48,0.64,3.11
17.345,1.94,-2.02,2.06,3.48
17.355,1.82,-1.84,2.50,3.60
17.365,1.20,-2.12,3.07,3.92
17.375,0.22,-2.58,3.89,4.67
17.385,-0.94,-3.03,5.17,6.06
17.395,-2.28,-3.43,7.19,8.29
17.405,-3.24,-3.69,8.36,9.70
17.415,-3.91,-3.74,7.97,9.63
17.425,-4.39,-3.45,7.16,9.08
17.435,-4.60,-2.69,5.12,7.39
17.445,-4.83,-1.87,1.44,5.38
17.456,-4.23,-0.37,-0.73,4.31
17.466,-3.14,1.24,-0.05,3.38
17.476,-2.61,2.35,1.72,3.91
17.486,-1.59,3.39,1.84,4.18
17.496,-0.46,4.18,-1.00,4.32
17.506,-0.16,3.96,-1.86,4.38
17.516,-0.67,3.44,0.36,3.52
17.526,-0.15,3.21,2.20,3.89
17.536,0.22,3.00,3.63,4.71
17.546,0.30,2.80,4.07,4.95
17.556,0.13,2.56,4.46,5.14
17.566,0.33,2.54,5.55,6.11
17.576,0.47,2.55,6.50,7.00
17.586,0.24,2.48,6.62,7.07
17.596,0.08,2.53,6.10,6.60
17.606,0.01,2.68,5.21,5.86
17.617,-0.08,2.87,4.43,5.27
17.627,-0.27,3.08,4.01,5.07
17.637,-0.46,3.27,3.92,5.13
17.647,-0.53,3.44,4.09,5.37
17.657,-0.36,3.50,4.49,5.71
17.667,-0.10,3.42,4.86,5.95
17.677,0.17,3.20,4.96,5.91
17.687,0.52,2.99,4.82,5.70
17.697,0.85,2.87,4.40,5.32
17.707,1.24,2.73,3.79,4.83
17.717,1.53,2.45,3.00,4.16
17.727,1.65,1.85,2.05,3.22
17.737,1.81,0.83,0.66,2.10
17.747,2.21,-0.72,-2.09,3.13
17.758,3.31,-3.34,-8.35,9.59
17.768,4.30,-8.86,-22.64,24.69
17.778,2.04,-14.79,-28.51,32.18
17.788,-0.63,-16.48,-20.77,26.52
17.798,-2.59,-13.82,-11.50,18.17
17.808,-3.55,-7.88,-3.32,9.26
17.818,-3.61,-2.93,-0.16,4.65
17.828,-2.60,0.81,0.43,2.75
17.838,-1.13,3.88,0.23,4.04
17.848,-0.70,6.73,0.41,6.78
17.858,-1.16,8.31,2.07,8.64
17.868,-2.97,7.42,4.77,9.31
17.878,-5.83,4.17,6.97,10.00
17.888,-9.31,0.85,8.20,12.43
17.898,-11.37,-1.32,8.49,14.25
17.909,-11.71,-1.80,7.90,14.24
17.919,-10.07,-1.62,2.52,10.51
17.928,-5.84,-2.18,-3.81,7.31
17.939,-2.57,-0.02,3.66,4.47
17.949,-0.95,1.94,6.19,6.55
17.959,0.76,3.17,4.67,5.70
17.969,1.33,3.65,2.88,4.84
17.979,1.27,3.28,1.99,4.04
17.989,1.19,2.09,1.65,2.91
17.999,1.31,0.30,1.70,2.17
18.009,1.52,-1.56,1.53,2.66
18.019,5.20,-3.67,0.05,6.37
18.029,1.64,-4.81,2.19,5.53
18.039,-1.06,-4.84,4.36,6.60
18.049,0.03,-3.77,4.35,5.75
18.060,1.60,-2.53,3.75,4.80
18.070,2.60,-1.46,3.08,4.29
18.080,3.18,-0.56,2.57,4.13
18.090,3.32,0.14,2.18,3.97
18.100,3.36,0.76,1.83,3.90
18.110,3.32,1.15,1.48,3.82
18.120,3.30,1.41,1.17,3.78
18.130,3.32,1.45,0.86,3.73
18.140,3.16,1.30,0.57,3.46
18.150,3.01,0.84,0.21,3.13
18.160,2.80,0.33,-0.15,2.83
18.170,2.56,-0.17,-0.54,2.63
18.180,2.38,-0.49,-0.96,2.61
18.190,1.81,-0.43,-2.04,2.76
18.200,1.25,-0.27,-2.78,3.06
18.210,1.17,-0.33,-2.63,2.90
18.221,1.31,-0.55,-2.14,2.57
18.231,1.11,-0.67,-1.90,2.31
18.241,0.77,-0.82,-1.89,2.20
18.251,0.52,-1.04,-1.99,2.30
18.261,0.31,-1.28,-2.35,2.69
18.271,0.38,-1.41,-2.76,3.12
18.281,0.48,-1.30,-2.95,3.26
18.291,0.43,-1.07,-2.99,3.20
18.301,0.16,-0.85,-2.82,2.95
18.311,-0.19,-0.75,-2.68,2.79
18.321,-0.50,-0.69,-2.70,2.83
18.331,-0.83,-0.54,-3.06,3.22
18.341,-1.39,-0.68,-3.24,3.59
18.351,-1.81,-1.01,-3.19,3.80
18.361,-1.96,-1.17,-3.61,4.27
18.371,-2.05,-0.97,-4.84,5.35
18.382,-2.22,-0.62,-6.36,6.77
18.392,-2.15,-0.95,-6.54,6.95
18.402,-1.25,-2.08,-4.86,5.43
18.412,-0.32,-3.06,-3.35,4.55
18.422,0.51,-3.68,-2.75,4.62
18.432,1.11,-4.11,-3.10,5.27
18.442,1.16,-3.72,-5.39,6.65
18.452,0.54,-3.15,-8.84,9.40
18.462,-1.41,-3.99,-11.36,12.12
18.472,-2.63,-5.83,-10.20,12.04
18.482,-2.58,-6.24,-6.93,9.68
18.492,-1.48,-5.09,-4.21,6.77
18.502,0.30,-3.56,-1.94,4.06
18.512,1.87,-2.87,0.36,3.45
18.523,2.81,-2.52,1.90,4.22
18.533,3.33,-2.19,2.68,4.80
18.543,2.77,-2.17,2.96,4.60
18.553,1.80,-2.37,3.65,4.71
18.563,0.81,-2.56,4.38,5.14
18.573,0.00,-2.78,5.03,5.74
18.583,-1.23,-3.14,5.95,6.84
18.593,-2.77,-3.74,7.19,8.56
18.603,-3.85,-4.14,8.07,9.86
18.613,-4.38,-3.99,7.98,9.94
18.623,-4.66,-3.33,7.12,9.14
18.633,-4.96,-2.18,5.93,8.03
18.643,-4.13,-0.17,4.30,5.96
18.653,-2.42,1.91,0.11,3.09
18.664,-2.24,2.72,0.10,3.52
18.673,-2.51,3.30,-0.56,4.18
18.684,-1.85,3.51,-6.07,7.26
18.694,-1.15,3.38,-5.41,6.49
18.704,-0.90,3.44,0.07,3.56
18.714,-0.16,3.18,2.89,4.30
18.724,-0.11,3.10,3.54,4.70
18.734,-0.01,3.16,4.31,5.34
18.744,-0.04,3.24,5.69,6.54
18.754,-0.29,3.35,7.13,7.89
18.764,-0.37,3.49,7.84,8.59
18.774,-0.45,3.60,7.44,8.28
18.784,-0.55,3.86,6.39,7.49
18.794,-0.55,4.12,5.30,6.73
18.805,-0.59,4.19,4.42,6.12
18.814,-0.58,4.12,3.98,5.76
18.825,-0.39,3.84,3.96,5.53
18.835,-0.18,3.45,4.15,5.40
18.845,0.14,3.05,4.33,5.30
18.855,0.69,2.75,4.38,5.22
18.865,1.28,2.56,4.24,5.12
18.875,1.74,2.44,3.97,4.97
18.885,1.96,2.21,3.55,4.62
18.895,2.03,1.73,3.02,4.04
18.905,2.05,0.94,2.12,3.09
18.915,2.25,-0.31,0.22,2.29
18.925,2.50,-2.39,-4.48,5.66
18.935,2.92,-7.14,-18.79,20.31
18.946,1.72,-14.16,-32.45,35.45
18.955,-0.38,-17.76,-28.70,33.75
18.965,-3.07,-15.36,-14.75,21.51
18.975,-4.67,-8.14,-2.40,9.68
18.986,-3.66,-2.72,0.68,4.61
18.995,-2.68,0.78,1.39,3.12
19.006,-1.13,4.09,1.09,4.38
19.016,0.04,6.99,0.91,7.05
19.026,0.29,8.87,2.04,9.11
19.036,-0.41,8.23,3.96,9.14
19.046,-2.79,4.88,5.55,7.90
19.056,-6.14,1.41,6.48,9.03
19.066,-9.42,-2.06,7.50,12.21
19.076,-11.37,-4.10,8.36,14.70
19.086,-11.27,-4.25,8.09,14.51
19.096,-7.09,-4.10,1.91,8.41
19.106,-2.47,-2.22,1.28,3.56
19.117,-0.73,0.91,4.20,4.36
19.127,0.35,2.73,3.88,4.75
19.137,1.31,3.72,2.69,4.78
19.147,1.68,3.79,1.82,4.52
19.157,1.40,2.93,1.53,3.59
19.167,0.96,1.39,1.52,2.27
19.177,2.83,-1.00,1.02,3.17
19.187,0.30,-2.91,1.68,3.37
19.197,-1.63,-3.88,2.58,4.93
19.207,0.24,-3.84,2.71,4.71
19.217,1.52,-3.03,2.60,4.27
19.227,2.48,-2.17,2.55,4.16
19.237,3.23,-1.14,2.56,4.28
19.247,3.62,-0.17,2.42,4.36
19.257,3.81,0.42,2.03,4.34
19.268,3.59,0.62,1.62,3.99
19.278,3.17,0.65,1.27,3.48
19.288,2.93,0.62,0.87,3.12
19.298,2.97,0.62,0.32,3.05
19.308,2.90,0.61,-0.24,2.97
19.318,2.48,0.77,-0.93,2.76
19.328,1.55,1.20,-2.38,3.09
19.338,1.24,1.00,-2.85,3.26
19.348,1.78,0.26,-2.35,2.96
19.358,1.96,-0.27,-1.60,2.55
19.368,1.37,-0.30,-1.11,1.79
19.378,0.77,-0.32,-0.92,1.24
19.388,0.58,-0.33,-0.89,1.11
19.398,0.65,-0.36,-1.09,1.31
19.409,0.85,-0.29,-1.43,1.68
19.419,0.96,-0.11,-1.77,2.02
19.429,0.59,-0.06,-1.88,1.97
19.439,0.03,-0.15,-1.91,1.92
19.449,-0.52,-0.27,-2.00,2.08
19.459,-1.00,-0.38,-2.15,2.40
19.469,-1.47,-0.67,-2.19,2.72
19.479,-1.69,-1.09,-2.08,2.89
19.489,-1.53,-1.26,-1.93,2.77
19.499,-1.04,-1.14,-2.06,2.57
19.509,-0.60,-0.93,-2.42,2.66
19.519,-0.42,-0.75,-3.06,3.18
19.529,-0.56,-0.54,-4.33,4.40
19.539,-1.15,-0.51,-6.24,6.37
19.549,-1.76,-1.03,-7.83,8.09
19.559,-1.47,-2.05,-7.17,7.60
19.569,-0.48,-3.19,-5.15,6.07
19.580,0.12,-4.11,-4.03,5.76
19.589,0.41,-4.66,-4.22,6.30
19.600,0.50,-5.06,-5.43,7.44
19.610,0.25,-5.92,-7.06,9.22
19.620,-0.64,-7.01,-8.44,10.99
19.630,-1.41,-7.09,-8.58,11.22
19.640,-1.28,-5.48,-7.29,9.21
19.650,-0.22,-3.46,-4.85,5.96
19.660,1.17,-2.83,-2.24,3.80
19.670,2.24,-2.63,0.08,3.45
19.680,2.31,-2.32,1.56,3.63
19.690,2.08,-2.20,2.55,3.95
19.700,1.42,-2.36,3.70,4.62
19.710,0.50,-2.69,4.63,5.38
19.720,-0.56,-3.11,5.70,6.52
19.731,-1.77,-3.35,7.38,8.29
19.741,-2.50,-3.39,8.64,9.61
19.751,-3.12,-3.56,8.30,9.56
19.761,-3.85,-3.56,6.98,8.73
19.771,-4.57,-2.95,5.45,7.70
19.781,-4.89,-1.76,2.81,5.91
19.791,-4.50,-0.30,-0.13,4.52
19.801,-3.55,1.39,0.12,3.82
19.811,-3.03,2.69,1.99,4.51
19.821,-2.25,3.65,2.02,4.74
19.831,-0.84,4.08,-2.33,4.77
19.841,-0.87,3.64,-2.90,4.74
19.851,-1.27,3.56,0.10,3.79
19.861,-0.53,3.26,2.58,4.19
19.871,-0.59,3.02,3.59,4.73
19.881,-0.75,2.87,3.95,4.94
19.892,-0.34,2.81,5.32,6.03
19.902,-0.18,2.88,6.81,7.39
19.912,-0.14,2.94,7.67,8.22
19.922,-0.11,3.04,7.51,8.10
19.932,-0.11,3.17,6.59,7.31
19.942,-0.13,3.32,5.21,6.18
19.952,-0.16,3.53,4.04,5.37
19.962,-0.24,3.75,3.56,5.18
19.972,-0.32,3.83,3.63,5.28
19.982,-0.30,3.68,3.98,5.43
19.992,-0.21,3.35,4.43,5.55
20.002,-0.08,3.03,4.82,5.69
20.012,0.26,2.81,4.91,5.67
20.022,0.67,2.73,4.54,5.34
20.032,1.05,2.77,3.92,4.91
20.043,1.39,2.73,3.29,4.49
20.053,1.54,2.42,2.71,3.94
20.063,1.54,1.65,2.02,3.03
20.073,1.54,0.39,0.76,1.76
20.083,1.75,-1.38,-2.06,3.04
20.093,2.79,-4.94,-12.57,13.79
20.103,3.00,-12.06,-30.55,32.98
20.113,0.07,-17.00,-29.33,33.90
20.123,-2.59,-16.77,-18.19,24.88
20.133,-4.64,-11.00,-5.56,13.16
20.143,-4.03,-4.93,-0.10,6.37
20.153,-3.31,-0.83,1.43,3.70
20.163,-1.87,2.71,1.44,3.59
20.173,-0.83,5.93,0.67,6.02
20.184,-1.06,8.20,1.01,8.33
20.194,-2.90,7.83,3.15,8.92
20.204,-5.59,4.74,6.37,9.71
20.214,-8.51,1.47,8.41,12.05
20.224,-10.91,-0.90,8.55,13.89
20.234,-11.69,-1.69,7.52,14.00
20.244,-10.32,-1.07,4.55,11.33
20.254,-6.72,-2.42,-5.58,9.06
20.264,-3.15,-1.40,0.17,3.46
20.274,-1.57,0.89,5.79,6.06
20.284,0.51,2.52,5.57,6.13
20.294,1.49,3.33,3.31,4.93
20.304,1.78,3.49,2.10,4.44
20.314,1.94,2.99,1.32,3.80
20.324,1.89,1.67,1.28,2.83
20.335,4.35,-0.46,1.05,4.50
20.345,3.11,-2.35,1.24,4.09
20.355,-0.86,-3.58,2.86,4.66
20.365,0.36,-4.00,3.27,5.18
20.375,1.52,-3.57,3.54,5.26
20.385,2.35,-3.02,3.31,5.06
20.395,2.73,-2.34,2.93,4.64
20.405,2.66,-1.53,2.73,4.11
20.415,2.77,-0.74,2.52,3.82
20.425,3.08,-0.11,2.16,3.76
20.435,3.12,0.38,1.75,3.60
20.445,3.03,0.66,1.42,3.41
20.455,2.95,0.83,1.04,3.23
20.465,2.85,0.84,0.64,3.04
20.476,2.70,0.73,0.28,2.81
20.486,2.59,0.55,-0.07,2.65
20.496,2.60,0.37,-0.46,2.66
20.506,2.54,0.28,-0.82,2.68
20.516,1.93,0.42,-1.61,2.55
20.526,1.26,0.46,-2.23,2.61
20.536,1.22,0.30,-2.15,2.49
20.546,1.31,-0.04,-1.64,2.10
20.556,0.99,-0.26,-1.36,1.71
20.566,0.61,-0.39,-1.33,1.52
20.576,0.42,-0.63,-1.38,1.57
20.586,0.39,-0.64,-1.58,1.75
20.596,0.44,-0.44,-1.94,2.03
20.606,0.21,-0.15,-2.15,2.16
20.616,-0.34,-0.01,-2.31,2.34
20.626,-0.76,-0.01,-2.46,2.58
20.636,-0.95,-0.20,-2.59,2.76
20.646,-1.02,-0.47,-2.71,2.93
20.657,-1.03,-0.67,-2.85,3.11
20.667,-1.00,-0.80,-3.02,3.28
20.677,-0.88,-0.82,-3.23,3.45
20.687,-0.61,-0.81,-3.61,3.75
20.697,-0.39,-0.78,-4.15,4.24
20.707,-0.63,-0.77,-4.71,4.81
20.717,-1.35,-0.83,-5.12,5.36
20.727,-2.08,-1.12,-5.04,5.57
20.737,-2.21,-1.73,-4.34,5.17
20.747,-1.50,-2.38,-3.49,4.48
20.757,-0.54,-2.86,-2.90,4.11
20.767,-0.26,-3.45,-3.41,4.86
20.777,-0.57,-3.87,-5.41,6.68
20.787,-1.20,-3.43,-9.05,9.76
20.797,-2.09,-3.91,-11.61,12.43
20.807,-2.53,-5.83,-10.38,12.17
20.818,-1.97,-6.92,-7.75,10.58
20.828,-1.04,-6.17,-5.77,8.51
20.838,0.09,-3.98,-4.24,5.82
20.848,1.25,-2.78,-2.33,3.84
20.858,2.47,-2.88,-0.00,3.80
20.868,3.03,-2.75,1.78,4.47
20.878,3.37,-2.49,3.02,5.17
20.888,3.12,-2.49,3.56,5.35
20.898,2.12,-2.71,3.98,5.26
20.908,1.14,-3.12,5.23,6.19
20.918,0.08,-3.68,6.59,7.55
20.928,-1.28,-4.28,8.55,9.65
20.938,-2.13,-4.50,9.61,10.82
20.948,-2.18,-4.34,8.39,9.69
20.959,-2.47,-3.82,7.41,8.69
20.969,-2.68,-3.00,6.41,7.56
20.979,-2.69,-1.45,0.86,3.18
20.989,-2.72,0.31,-0.10,2.74
20.999,-2.48,1.74,-2.35,3.83
21.009,-2.41,2.43,-8.51,9.17
21.019,-3.06,2.71,-4.64,6.18
21.029,-2.31,2.93,0.27,3.74
21.039,-1.65,3.01,2.02,3.98
21.049,-1.13,2.88,3.18,4.44
21.059,-0.31,2.92,4.83,5.65
21.069,0.09,3.06,6.23,6.94
21.079,0.65,3.24,6.73,7.50
21.089,0.86,3.29,6.79,7.59
21.100,0.59,3.14,6.52,7.26
21.110,0.15,3.17,5.89,6.69
21.120,0.02,3.38,5.22,6.22
21.130,-0.20,3.60,4.80,6.00
21.140,-0.68,3.80,4.61,6.01
21.150,-1.12,3.92,4.55,6.11
21.160,-1.30,3.97,4.63,6.24
21.170,-1.12,4.00,4.83,6.37
21.180,-0.79,3.90,4.94,6.34
21.190,-0.56,3.65,4.92,6.15
21.200,-0.13,3.30,4.71,5.76
21.210,0.46,3.02,4.36,5.32
21.220,1.02,2.77,3.97,4.95
21.230,1.45,2.48,3.51,4.53
21.240,1.78,1.97,3.02,4.02
21.251,2.06,1.10,2.49,3.42
21.261,2.46,-0.15,1.51,2.89
21.271,2.94,-1.89,-0.76,3.58
21.281,3.51,-4.94,-8.41,10.36
21.291,3.93,-11.40,-27.23,29.78
21.301,1.41,-17.03,-31.76,36.06
21.311,-0.98,-16.99,-22.26,28.03
21.321,-3.40,-11.64,-8.81,14.99
21.331,-4.02,-5.26,-2.23,6.99
21.341,-3.43,-0.91,-0.48,3.58
21.351,-2.26,2.36,0.37,3.29
21.361,-1.23,5.13,0.11,5.28
21.371,-1.79,6.89,0.58,7.15
21.382,-4.35,5.77,3.25,7.92
21.392,-6.68,1.99,6.49,9.52
21.402,-9.35,-1.16,7.43,12.00
21.412,-11.22,-2.60,7.89,13.96
21.422,-10.31,-1.74,7.80,13.04
21.432,-7.25,-0.09,1.91,7.50
21.442,-3.17,1.17,0.02,3.38
21.452,-0.65,2.80,4.62,5.44
21.462,0.92,3.78,5.37,6.64
21.472,1.86,4.22,3.91,6.04
21.482,2.11,3.94,2.65,5.20
21.492,1.76,2.75,2.12,3.89
21.502,2.07,0.65,1.96,2.92
21.512,0.89,-1.43,1.71,2.40
21.522,2.12,-4.02,0.65,4.59
21.532,2.59,-5.75,0.58,6.34
21.542,1.49,-6.29,2.61,6.98
21.553,1.50,-5.50,4.48,7.25
21.563,-0.02,-3.54,5.57,6.60
21.573,1.20,-1.99,4.97,5.48
21.583,2.59,-0.77,3.69,4.57
21.593,3.24,0.25,3.02,4.44
21.603,3.53,1.03,2.72,4.57
21.613,3.56,1.55,2.42,4.58
21.623,3.57,1.88,2.04,4.52
21.633,3.56,1.98,1.60,4.37
21.643,3.30,1.96,1.19,4.01
21.653,3.00,1.68,0.88,3.55
21.663,2.69,1.27,0.61,3.03
21.673,2.31,0.80,0.35,2.47
21.684,1.91,0.34,0.12,1.94
21.694,1.62,-0.04,-0.17,1.63
21.704,1.42,-0.38,-0.50,1.55
21.714,1.10,-0.46,-0.89,1.49
21.724,0.54,-0.25,-1.40,1.52
21.734,-0.02,0.02,-1.78,1.78
21.744,-0.36,0.02,-1.93,1.97
21.754,-0.66,-0.16,-2.07,2.18
21.764,-1.00,-0.41,-2.35,2.59
21.774,-1.32,-0.69,-2.78,3.16
21.784,-1.33,-0.94,-3.06,3.46
21.794,-1.10,-1.04,-3.01,3.37
21.804,-0.76,-0.95,-2.67,2.93
21.814,-0.62,-0.85,-2.74,2.94
21.824,-0.78,-0.86,-2.87,3.09
21.834,-0.93,-1.06,-3.16,3.46
21.845,-0.68,-1.34,-3.48,3.79
21.855,0.04,-1.41,-3.70,3.96
21.865,0.78,-1.52,-3.95,4.31
21.875,1.13,-1.55,-4.29,4.70
21.885,0.90,-1.30,-4.88,5.13
21.895,-0.20,-0.95,-5.51,5.60
21.905,-1.38,-0.87,-5.69,5.92
21.915,-1.71,-1.25,-5.00,5.43
21.925,-1.16,-2.07,-3.85,4.52
21.935,-0.37,-2.91,-3.15,4.30
21.945,0.12,-3.58,-3.35,4.91
21.955,0.46,-4.05,-4.21,5.86
21.965,0.17,-4.27,-5.90,7.29
21.975,-0.50,-5.34,-7.59,9.29
21.986,-0.80,-6.73,-7.83,10.35
21.995,-0.87,-6.81,-6.59,9.51
22.006,-0.43,-5.15,-5.12,7.27
22.016,0.65,-3.40,-3.57,4.98
22.026,1.78,-2.61,-1.57,3.53
22.036,2.57,-2.14,0.16,3.35
22.046,2.93,-1.77,1.25,3.64
22.056,2.83,-1.57,2.01,3.81
22.066,1.83,-1.78,2.70,3.71
22.076,0.81,-2.33,3.73,4.47
22.086,-0.10,-2.78,4.92,5.65
22.096,-1.26,-3.19,6.09,6.99
22.106,-2.24,-3.60,7.50,8.61
22.116,-2.84,-3.79,8.02,9.31
22.126,-3.34,-3.79,7.06,8.68
22.136,-3.93,-3.30,5.68,7.65
22.147,-3.97,-2.28,3.77,5.93
22.157,-3.44,-0.80,2.19,4.16
22.167,-2.78,0.58,1.41,3.17
22.177,-2.11,1.72,0.70,2.81
22.187,-1.86,2.45,-2.38,3.89
22.197,-1.55,2.96,-4.80,5.85
22.207,-1.53,3.12,-1.90,3.96
22.217,-1.26,3.05,0.81,3.40
22.227,-0.60,2.82,2.50,3.82
22.237,-0.02,2.64,3.96,4.76
22.247,0.35,2.49,4.79,5.42
22.257,0.43,2.49,5.48,6.03
22.267,0.36,2.47,5.93,6.43
22.277,0.31,2.42,6.05,6.52
22.288,0.08,2.39,5.66,6.14
22.297,-0.12,2.42,4.87,5.44
22.308,-0.27,2.58,4.21,4.95
22.318,-0.48,2.76,3.93,4.83
22.328,-0.67,2.95,3.91,4.94
22.338,-0.87,3.18,4.06,5.23
22.348,-0.93,3.35,4.29,5.52
22.358,-0.72,3.31,4.71,5.81
22.368,-0.40,3.15,5.02,5.94
22.378,-0.09,2.82,5.05,5.78
22.388,0.28,2.50,4.85,5.46
22.398,0.67,2.33,4.49,5.10
22.408,1.02,2.31,4.00,4.73
22.418,1.34,2.36,3.42,4.37
22.429,1.56,2.22,2.80,3.90
22.438,1.83,1.79,2.13,3.33
22.449,2.16,0.98,1.18,2.65
22.459,2.52,-0.28,-0.61,2.61
22.469,3.13,-2.25,-4.52,5.94
22.479,4.64,-6.18,-15.51,17.33
22.489,3.92,-12.17,-26.94,29.82
22.499,0.73,-15.86,-24.55,29.24
22.509,-2.17,-15.25,-16.56,22.62
22.519,-4.13,-10.09,-6.98,12.94
22.529,-3.72,-4.41,-2.09,6.13
22.539,-3.08,-0.20,-0.31,3.11
22.549,-1.74,3.24,0.48,3.71
22.559,-0.65,6.12,0.78,6.20
22.569,-0.92,7.66,2.04,7.98
22.579,-3.10,6.18,4.59,8.29
22.589,-6.00,2.67,6.59,9.31
22.599,-9.51,-0.26,7.52,12.13
22.610,-11.44,-2.13,8.09,14.17
22.620,-11.50,-1.89,7.61,13.92
22.630,-9.34,-0.47,4.01,10.18
22.640,-5.19,-0.35,-3.16,6.09
22.650,-1.77,1.20,1.91,2.87
22.660,-0.55,2.31,4.91,5.46
22.670,0.75,3.18,4.11,5.25
22.680,1.50,3.51,2.84,4.76
22.690,1.58,3.05,1.96,3.96
22.700,1.36,1.82,1.54,2.74
22.710,0.83,0.07,1.66,1.86
22.720,1.31,-1.85,1.77,2.87
22.730,1.67,-3.36,1.95,4.23
22.740,-0.33,-3.94,3.19,5.08
22.750,1.06,-4.04,3.51,5.46
22.760,1.84,-3.69,3.44,5.37
22.771,2.65,-3.03,3.59,5.39
22.781,3.16,-2.38,3.65,5.38
22.791,2.99,-1.65,3.18,4.67
22.801,3.16,-0.81,2.71,4.24
22.811,3.36,-0.15,2.21,4.03
22.821,3.46,0.35,1.71,3.88
22.831,3.45,0.73,1.24,3.74
22.841,3.46,1.08,0.81,3.71
22.851,3.38,1.29,0.43,3.64
22.861,3.13,1.26,0.08,3.38
22.871,2.89,1.15,-0.34,3.13
22.881,2.68,0.99,-0.75,2.95
22.891,2.33,0.81,-1.12,2.71
22.901,1.79,0.69,-1.91,2.70
22.912,1.39,0.46,-2.27,2.70
22.922,1.23,0.08,-1.99,2.34
22.932,1.06,-0.35,-1.50,1.87
22.942,0.69,-0.66,-1.23,1.56
22.952,0.42,-0.79,-1.17,1.47
22.962,0.47,-0.83,-1.30,1.61
22.972,0.58,-0.67,-1.45,1.70
22.982,0.50,-0.48,-1.64,1.78
22.992,0.13,-0.28,-1.73,1.76
23.002,-0.33,-0.10,-1.76,1.80
23.012,-0.68,-0.02,-1.79,1.91
23.022,-0.91,-0.03,-1.86,2.07
23.032,-1.20,-0.21,-1.94,2.29
23.042,-1.56,-0.57,-2.01,2.61
23.053,-1.78,-0.95,-2.04,2.87
23.062,-1.73,-1.09,-2.13,2.95
23.073,-1.28,-1.03,-2.31,2.83
23.083,-0.55,-0.90,-2.74,2.94
23.093,0.06,-0.63,-3.85,3.90
23.103,0.03,-0.27,-5.83,5.83
23.113,-0.89,-0.25,-7.46,7.51
23.123,-1.67,-0.89,-6.83,7.09
23.133,-1.41,-1.96,-4.54,5.15
23.143,-0.81,-2.81,-3.05,4.23
23.153,-0.30,-3.28,-2.79,4.31
23.163,0.01,-3.86,-3.11,4.96
23.173,-0.15,-4.60,-4.27,6.28
23.183,-0.66,-5.78,-6.27,8.55
23.193,-1.17,-7.41,-8.29,11.18
23.203,-1.39,-7.80,-8.48,11.61
23.213,-1.06,-5.63,-6.90,8.97
23.223,-0.22,-2.86,-4.81,5.60
23.234,0.89,-1.70,-2.78,3.38
23.244,1.87,-1.58,-0.86,2.60
23.254,2.31,-1.38,0.47,2.73
23.264,2.68,-0.92,1.46,3.19
23.274,2.70,-0.28,2.31,3.57
23.284,2.03,-0.13,3.00,3.62
23.294,0.85,-0.68,3.84,3.99
23.304,-0.06,-1.50,4.87,5.09
23.314,-1.09,-2.48,6.39,6.94
23.324,-2.14,-3.44,7.66,8.66
23.334,-2.75,-4.18,8.80,10.12
23.344,-3.32,-4.79,9.19,10.88
23.355,-3.86,-4.55,5.06,7.82
23.364,-4.05,-3.55,2.21,5.82
23.375,-3.56,-1.81,1.74,4.35
23.385,-2.45,0.27,0.30,2.48
23.395,-1.66,1.65,-2.90,3.72
23.405,-1.96,2.37,-5.65,6.43
23.415,-2.23,2.93,-3.26,4.92
23.425,-2.04,3.11,0.27,3.72
23.435,-1.30,2.97,2.29,3.97
23.445,-0.79,2.37,3.21,4.07
23.455,-0.45,1.92,4.42,4.84
23.465,0.06,1.89,5.47,5.79
23.475,0.34,1.91,6.13,6.43
23.485,0.52,1.95,6.33,6.65
23.495,0.49,1.94,5.84,6.18
23.505,0.46,1.99,4.78,5.20
23.516,0.44,2.24,4.03,4.63
23.525,0.24,2.55,3.78,4.57
23.536,-0.06,2.78,3.79,4.69
23.546,-0.26,3.00,3.98,4.99
23.556,-0.48,3.21,4.28,5.37
23.566,-0.59,3.40,4.56,5.72
23.576,-0.81,3.29,4.65,5.75
23.586,-0.87,2.99,4.84,5.75
23.596,-0.72,2.60,4.91,5.60
23.606,-0.43,2.15,4.73,5.21
23.616,0.27,2.02,4.30,4.76
23.626,0.90,1.99,3.85,4.43
23.636,1.40,1.87,3.44,4.16
23.646,1.60,1.50,2.98,3.70
23.657,1.80,0.96,2.44,3.18
23.667,2.22,0.42,1.64,2.79
23.677,3.63,0.25,0.14,3.65
23.687,3.65,-1.62,-3.92,5.59
23.697,3.61,-6.57,-18.14,19.63
23.707,1.61,-12.83,-29.02,31.77
23.717,-0.21,-15.04,-23.39,27.81
23.727,-1.33,-12.43,-12.96,18.01
23.737,-2.84,-6.64,-3.51,8.03
23.747,-3.49,-1.65,-0.48,3.89
23.757,-2.58,1.41,-0.38,2.97
23.767,-1.40,3.66,-0.21,3.92
23.777,-0.38,5.83,0.50,5.86
23.787,0.18,6.86,2.01,7.15
23.797,-0.76,5.58,3.77,6.77
23.807,-3.47,2.71,5.02,6.68
23.817,-6.61,-0.43,5.92,8.89
23.828,-8.99,-2.76,6.64,11.51
23.838,-10.41,-3.80,6.86,13.04
23.848,-10.15,-3.16,6.41,12.42
23.858,-7.79,-1.86,3.06,8.57
23.868,-3.79,-0.90,-3.41,5.17
23.878,-1.08,1.08,0.46,1.60
23.888,0.03,2.40,3.22,4.01
23.898,1.05,3.13,2.96,4.44
23.908,1.58,3.05,2.31,4.14
23.918,1.27,1.92,1.97,3.03
23.928,1.12,0.42,1.82,2.18
23.938,1.12,-1.35,1.67,2.42
23.949,1.37,-2.63,1.50,3.33
23.958,1.85,-3.05,1.59,3.91
23.968,2.08,-3.02,1.81,4.09
23.979,2.18,-2.71,2.23,4.13
23.989,2.00,-2.55,2.45,4.06
23.999,2.46,-2.24,2.11,3.94
24.009,2.91,-2.24,1.95,4.17
24.019,3.48,-2.42,1.83,4.61
24.029,4.12,-1.99,1.36,4.77
24.039,4.19,-1.87,0.68,4.64
24.049,2.72,-1.79,-0.02,3.26
24.059,1.03,-1.92,-0.84,2.34
24.069,0.14,-1.92,-1.37,2.36
24.079,0.37,-1.11,-1.65,2.03
24.089,1.13,0.14,-1.62,1.98
24.099,2.14,1.56,-1.31,2.96
24.109,3.17,3.05,-0.84,4.48
24.120,3.90,4.17,-0.26,5.72
24.130,4.07,4.71,0.29,6.23
24.140,3.52,4.46,0.77,5.73
24.150,2.45,3.65,1.30,4.58
24.160,1.42,2.71,2.06,3.69
24.170,0.27,1.53,2.54,2.98
24.180,-0.97,0.51,2.55,2.78
24.190,-2.17,-0.19,2.56,3.36
24.200,-2.98,-0.66,2.45,3.91
24.210,-3.13,-0.97,2.07,3.88
24.220,-2.69,-0.96,1.50,3.22
24.230,-2.06,-0.69,0.71,2.29
24.240,-1.52,-0.36,0.05,1.56
24.250,-1.32,-0.29,-0.59,1.48
24.260,-1.18,-0.47,-1.38,1.88
24.271,-0.77,-0.58,-2.00,2.22
24.281,-0.18,-0.46,-2.52,2.57
24.291,0.37,-0.42,-3.20,3.25
24.301,0.85,-0.36,-3.73,3.84
24.311,1.15,-0.31,-4.21,4.38
24.321,1.35,-0.06,-4.27,4.48
24.331,1.49,0.83,-3.97,4.32
24.341,1.72,1.72,-3.55,4.30
24.351,1.95,2.31,-3.12,4.34
24.361,1.59,1.96,-2.72,3.71
24.371,1.58,1.48,-1.92,2.89
24.381,1.33,0.68,-0.99,1.79
24.391,0.36,-0.68,-0.31,0.83
24.402,-0.10,-1.96,0.61,2.06
24.411,-0.33,-3.00,1.38,3.32
24.422,-0.61,-3.63,2.17,4.27
24.432,-1.23,-4.39,2.52,5.21
24.442,-1.62,-4.87,2.23,5.60
24.452,-1.71,-4.70,1.87,5.34
24.462,-1.74,-4.25,1.29,4.77
24.472,-1.88,-3.55,0.37,4.04
24.482,-2.44,-3.10,-1.02,4.08
24.492,-2.48,-0.25,-4.50,5.14
24.502,-3.34,2.99,-9.45,10.46
24.512,-4.27,1.66,-11.33,12.23
24.522,-4.70,-2.62,-6.68,8.58
24.532,-4.14,-2.93,-2.28,5.56
24.542,-0.77,0.90,-0.03,1.18
24.552,1.60,4.22,2.15,5.00
24.562,1.53,5.42,3.87,6.83
24.572,-1.01,1.85,3.36,3.97
24.583,-3.29,-2.44,3.37,5.31
24.593,-2.31,-4.52,3.67,6.27
24.603,-0.11,-5.12,3.69,6.31
24.613,1.45,-4.58,4.03,6.27
24.623,2.17,-3.60,4.43,6.11
24.633,1.82,-2.77,4.65,5.71
24.643,0.90,-2.09,4.29,4.85
24.653,0.02,-1.47,3.59,3.88
24.663,-0.48,-0.76,2.98,3.11
24.673,-0.57,0.13,2.38,2.46
24.683,-0.89,0.57,2.09,2.34
24.693,-0.88,0.86,2.23,2.55
24.704,-0.32,1.26,2.33,2.67
24.714,0.22,1.86,2.40,3.05
24.724,0.35,2.15,2.33,3.19
24.734,0.18,2.22,2.28,3.18
24.744,-0.03,2.13,2.24,3.10
24.754,-0.23,2.15,2.31,3.16
24.764,-0.10,2.42,2.36,3.38
24.774,0.20,2.60,2.17,3.39
24.784,0.38,2.40,1.89,3.08
24.794,0.46,1.95,1.60,2.57
24.804,0.58,1.48,1.45,2.15
24.814,0.99,1.46,1.27,2.17
24.824,1.50,1.79,1.09,2.58
24.834,1.81,2.11,0.95,2.94
24.844,1.77,2.09,1.00,2.92
24.854,1.46,1.77,1.17,2.57
24.864,1.19,1.41,1.42,2.32
24.874,0.99,1.07,1.42,2.04
24.885,0.65,0.78,1.27,1.62
24.900,0.14,0.36,1.09,1.15
24.905,-0.43,-0.28,0.91,1.04
24.915,-0.97,-0.97,0.82,1.60
24.925,-1.45,-1.66,0.78,2.33
24.935,-1.82,-2.13,0.73,2.89
24.945,-2.18,-2.22,0.40,3.13
24.955,-2.52,-2.21,0.01,3.35
24.965,-2.83,-2.29,-0.33,3.65
24.975,-3.23,-2.30,-2.91,4.91
24.985,-3.89,-1.70,-4.47,6.17
24.995,-3.57,-1.60,-3.28,5.11
25.005,-2.72,-1.35,-1.63,3.45
25.015,-1.91,-0.52,-0.25,1.99
25.025,-1.42,0.43,0.24,1.50
25.035,-1.34,0.84,0.13,1.58
25.046,-1.36,0.67,0.02,1.51
25.056,-1.04,0.57,0.22,1.20
25.066,-0.55,0.84,0.52,1.13
25.076,-0.55,0.90,0.88,1.37
25.086,-0.71,0.64,1.15,1.50
25.096,-0.76,0.10,1.44,1.63
25.106,-0.68,-0.46,1.76,1.94
25.116,-0.89,-1.10,2.05,2.49
25.126,-0.95,-1.41,2.16,2.75
25.136,-0.52,-1.53,2.22,2.75
25.146,-0.10,-1.61,2.36,2.86
25.158,0.15,-1.69,2.63,3.13
25.166,0.75,-1.42,2.71,3.15
25.177,0.95,-1.02,3.33,3.61
25.187,0.81,-0.52,4.02,4.13
25.196,0.70,-0.38,4.24,4.32
25.207,0.47,-0.61,4.11,4.18
25.217,0.49,-0.98,3.39,3.57
25.227,0.39,-1.79,2.57,3.16
25.237,0.74,-1.83,2.01,2.82
25.247,1.23,-1.19,1.37,2.19
25.257,1.28,-0.91,0.09,1.57
25.267,0.90,-0.70,-2.77,2.99
25.277,0.76,0.24,-8.18,8.22
25.287,1.30,0.37,-9.53,9.63
25.297,2.07,-0.21,-7.29,7.58
25.307,2.71,-0.76,-4.86,5.62
25.317,2.89,-0.90,-2.84,4.15
25.328,2.98,-0.67,-0.77,3.15
25.338,2.56,-0.26,0.43,2.61
25.348,1.15,-0.73,0.68,1.52
25.358,0.22,-0.90,0.87,1.27
25.368,0.11,-0.26,1.08,1.11
25.378,-0.04,-0.03,0.96,0.96
25.388,-0.41,-0.26,0.32,0.58
25.398,-0.34,0.36,-0.70,0.85
25.408,-0.30,1.37,-2.05,2.48
25.418,-0.24,1.59,-2.69,3.13
25.428,0.32,1.21,-2.18,2.51
25.438,0.58,-0.07,-1.12,1.26
25.448,0.78,-1.03,0.16,1.31
25.458,1.08,-1.39,1.24,2.15
25.468,1.15,-1.64,1.70,2.63
25.479,1.25,-1.56,1.69,2.62
25.489,1.09,-1.46,1.45,2.33
25.499,0.93,-1.50,1.71,2.46
25.509,1.24,-1.35,2.08,2.77
25.519,1.91,-0.73,1.97,2.84
25.529,1.78,-0.58,0.96,2.10
25.539,1.07,-0.46,-0.45,1.25
25.549,0.31,0.12,-1.81,1.84
25.559,-0.26,0.72,-2.48,2.59
25.569,-0.56,0.63,-2.13,2.29
25.579,-0.40,0.79,-1.67,1.89
25.589,-0.91,1.17,-1.56,2.15
25.599,-1.80,1.51,-1.40,2.74
25.609,-2.24,1.95,-1.04,3.15
25.619,-2.32,2.21,-0.70,3.28
25.630,-2.41,2.09,-0.25,3.20
25.639,-2.36,1.83,-0.23,3.00
25.650,-1.70,1.83,-0.27,2.51
25.660,-1.11,1.95,-0.44,2.29
25.670,-1.38,1.63,-0.98,2.35
25.680,-1.80,1.31,-1.76,2.84
25.690,-2.00,0.81,-1.75,2.78
25.700,-1.75,0.50,-1.23,2.19
25.710,-0.86,0.77,-0.79,1.40
25.720,0.00,0.99,-0.57,1.14
25.730,0.33,1.10,-0.52,1.26
25.740,0.07,1.19,-0.35,1.24
25.750,-0.07,1.37,0.00,1.37
25.760,-0.23,1.22,0.36,1.29
25.770,-0.25,0.94,0.48,1.09
25.780,0.38,0.94,0.30,1.06
25.791,0.98,0.81,-0.06,1.27
25.801,1.04,0.45,-0.40,1.20
25.811,0.57,0.35,-0.50,0.84
25.821,-0.39,0.35,-0.28,0.60
25.831,-2.11,-0.24,-0.31,2.15
25.841,-3.35,-0.35,-0.78,3.45
25.851,-3.05,0.65,-1.26,3.36
25.861,-1.96,1.58,-1.36,2.86
25.871,-1.23,1.89,-1.21,2.56
25.881,-0.50,1.85,-0.72,2.05
25.891,0.28,1.52,0.12,1.55
25.901,0.01,0.42,0.72,0.83
25.911,-0.14,0.15,0.82,0.85
25.921,0.64,0.99,0.70,1.37
25.932,1.26,1.78,0.95,2.38
25.941,1.36,2.12,1.46,2.91
25.952,0.61,1.72,1.94,2.66
25.962,-1.25,0.48,2.04,2.44
25.972,-2.54,-0.08,1.62,3.01
25.982,-2.25,0.09,0.83,2.40
25.992,-1.30,0.14,-0.14,1.32
26.002,-0.40,-0.08,-1.17,1.24
26.012,0.48,-0.50,-1.81,1.94
26.022,0.99,-1.16,-1.78,2.34
26.032,1.07,-2.10,-1.58,2.83
26.042,0.76,-2.89,-1.42,3.31
26.052,1.08,-2.40,-1.02,2.82
26.062,3.30,-4.69,0.85,5.80
26.072,2.91,-6.78,0.66,7.41
26.082,1.51,-6.29,-0.50,6.49
26.093,0.86,-6.07,-0.92,6.20
26.103,0.36,-5.50,-1.24,5.65
26.113,0.27,-4.59,-1.48,4.83
26.123,0.16,-3.69,-1.50,3.98
26.133,-0.25,-2.82,-1.50,3.20
26.143,-0.20,-1.91,-2.11,2.85
26.153,0.32,-1.12,-2.56,2.81
26.163,0.92,-0.81,-2.46,2.75
26.173,2.10,-0.36,-1.87,2.83
26.183,4.03,0.35,-0.27,4.06
26.193,5.36,0.60,1.86,5.71
26.203,5.55,0.28,3.88,6.78
26.213,5.39,0.18,5.39,7.63
26.223,5.45,0.46,6.21,8.28
26.234,5.46,0.67,6.35,8.40
26.244,5.36,0.53,5.97,8.04
26.254,5.43,0.42,5.18,7.51
26.264,5.58,0.46,4.13,6.95
26.274,5.06,0.30,3.02,5.90
26.284,4.07,-0.11,1.98,4.53
26.294,3.59,0.21,1.01,3.73
26.304,3.09,0.36,0.25,3.12
26.314,2.54,0.35,-0.22,2.58
26.324,2.04,0.41,-0.36,2.11
26.334,1.59,0.52,-0.14,1.68
26.344,1.11,0.53,0.40,1.30
26.354,0.55,0.48,1.08,1.31
26.364,-0.14,0.26,1.57,1.60
26.375,-0.66,0.01,1.69,1.81
26.384,-0.79,-0.17,1.40,1.61
26.395,-0.36,-0.19,1.09,1.16
26.405,0.39,-0.01,0.99,1.06
26.415,0.92,-0.00,1.08,1.42
26.425,1.02,-0.02,1.44,1.77
26.435,0.52,-0.06,1.88,1.95
26.445,-0.74,-0.49,2.08,2.26
26.455,-1.83,-0.84,2.01,2.84
26.465,-2.13,-0.67,1.72,2.82
26.475,-1.97,-0.40,1.18,2.33
26.485,-1.31,0.04,0.84,1.55
26.495,-0.81,0.13,0.75,1.11
26.505,-0.94,-0.13,0.74,1.20
26.516,-1.69,-0.53,0.66,1.89
26.525,-2.57,-0.86,0.55,2.76
26.536,-3.19,-1.08,0.42,3.39
26.546,-3.38,-1.20,0.25,3.60
26.556,-3.02,-1.01,0.08,3.18
26.566,-2.35,-0.60,0.16,2.43
26.576,-2.07,-0.42,0.35,2.14
26.586,-2.40,-0.72,0.40,2.54
26.596,-3.00,-1.20,0.21,3.23
26.606,-3.45,-1.45,-0.16,3.74
26.616,-3.60,-1.51,-0.54,3.94
26.626,-3.28,-1.44,-0.84,3.68
26.636,-2.57,-1.18,-0.99,2.99
26.646,-1.77,-0.77,-1.00,2.17
26.656,-1.21,-0.51,-0.94,1.61
26.666,-1.20,-0.52,-0.93,1.61
26.676,-1.78,-0.91,-1.01,2.24
26.687,-2.36,-1.28,-1.06,2.89
26.697,-1.73,-1.54,-0.82,2.46
26.707,0.54,-1.81,0.12,1.90
26.717,3.47,-2.47,1.72,4.59
26.727,4.07,-3.05,1.82,5.40
26.737,1.92,-3.15,0.60,3.74
26.747,-0.26,-2.78,-0.50,2.84
26.757,-1.77,-2.23,-1.31,3.14
26.767,-2.65,-1.52,-1.75,3.52
26.777,-2.47,-0.66,-2.12,3.32
26.787,-1.96,-0.28,-2.47,3.16
26.797,-1.50,-0.20,-2.92,3.29
26.807,-0.91,-0.53,-3.43,3.59
26.817,-0.25,-1.28,-3.54,3.77
26.827,0.96,-1.96,-0.81,2.33
26.837,3.29,-2.78,0.38,4.33
26.848,1.56,-3.04,0.62,3.47
26.858,-0.73,-2.33,0.07,2.44
26.868,-0.96,-1.72,-1.08,2.25
26.878,-1.24,-0.88,-1.33,2.02
26.888,-0.16,-0.17,-1.05,1.07
26.899,0.24,-0.02,0.20,0.31
26.908,-0.54,-0.20,1.56,1.66
26.918,-0.40,-0.64,1.77,1.92
26.928,0.30,-1.32,1.16,1.79
26.938,0.51,-2.00,0.66,2.17
26.948,0.53,-2.27,0.38,2.37
26.958,0.79,-1.95,0.12,2.11
26.968,1.04,-1.71,0.16,2.01
26.979,1.38,-1.70,0.35,2.22
26.989,1.69,-1.37,-0.21,2.19
26.999,1.19,-1.76,-0.51,2.19
27.009,0.78,-2.28,-1.25,2.72
27.019,1.49,-1.74,-2.12,3.13
27.029,2.17,-0.79,-1.82,2.94
27.039,1.53,-0.97,-1.35,2.26
27.049,0.97,-0.86,-0.93,1.59
27.059,0.66,-0.52,-0.71,1.10
27.069,0.23,-0.35,-0.61,0.74
27.079,0.17,0.03,-0.26,0.31
27.089,0.30,0.18,0.05,0.35
27.099,0.32,-0.43,0.37,0.65
27.109,0.40,-0.84,0.61,1.11
27.119,0.35,-1.18,0.44,1.31
27.129,0.01,-1.29,0.49,1.38
27.140,0.00,-1.11,0.83,1.39
27.149,0.26,-1.06,0.73,1.31
27.160,0.43,-0.96,0.24,1.08
27.170,0.38,-0.62,0.02,0.73
27.180,-0.10,-0.11,-0.24,0.29
27.190,-0.91,0.66,-0.92,1.45
27.200,-1.15,0.81,-0.81,1.62
27.210,-0.26,0.34,-0.45,0.62
27.220,0.41,0.28,-0.80,0.94
27.230,0.14,0.38,-1.09,1.16
27.240,-0.48,0.23,-1.24,1.35
27.250,-0.64,0.18,-1.06,1.26
27.260,-0.44,0.07,-0.61,0.75
27.270,-0.07,-0.25,-0.45,0.52
27.280,0.13,-0.43,-0.41,0.61
27.290,0.19,-0.55,-0.04,0.58
27.300,0.23,-0.71,0.13,0.76
27.310,0.30,-0.77,-0.11,0.83
27.321,0.44,-0.64,-0.21,0.81
27.331,0.22,-0.18,-0.00,0.29
27.341,-0.45,0.14,-0.26,0.54
27.351,-0.78,0.17,-0.39,0.89
27.361,-0.66,0.11,-0.50,0.84
27.371,-0.59,0.05,-0.76,0.96
27.381,-0.42,-0.03,-1.10,1.17
27.391,-0.10,0.00,-1.26,1.26
27.401,0.24,-0.19,-1.23,1.27
27.411,0.49,-0.38,-1.27,1.41
27.421,0.76,-0.51,-1.38,1.65
27.431,0.58,-0.68,-1.22,1.51
27.441,0.29,-0.68,-0.85,1.12
27.451,-0.00,-0.69,-0.70,0.98
27.462,-0.16,-0.53,-0.55,0.78
27.472,-0.22,-0.37,-0.23,0.49
27.482,-0.01,-0.43,0.02,0.43
27.492,0.43,-0.54,0.05,0.69
27.502,0.58,-0.54,0.06,0.80
27.512,0.19,-0.60,0.39,0.74
27.522,-0.23,-0.65,0.73,1.00
27.532,-0.14,-0.50,0.55,0.76
27.542,-0.24,-0.19,0.43,0.53
27.552,-0.31,0.09,0.30,0.44
27.562,-0.37,0.30,0.07,0.48
27.572,-0.39,0.42,-0.25,0.62
27.582,-0.38,0.18,-0.38,0.57
27.592,-0.21,0.02,-0.26,0.34
27.603,-0.02,-0.09,-0.22,0.24
27.613,-0.00,-0.30,-0.29,0.42
27.623,-0.03,-0.37,-0.25,0.45
27.633,-0.05,-0.20,-0.18,0.27
27.643,-0.15,0.08,-0.24,0.29
27.653,-0.30,0.42,-0.46,0.69
27.663,-0.35,0.81,-0.70,1.13
27.673,-0.33,0.74,-1.05,1.32
27.683,-0.28,0.46,-1.11,1.24
27.693,-0.44,0.25,-0.79,0.94
27.703,0.22,-0.02,-0.57,0.61
27.713,0.60,-0.20,-0.31,0.70
27.723,0.42,-0.16,-0.02,0.45
27.733,0.00,0.08,0.11,0.13
27.743,-0.30,0.34,0.24,0.51
27.753,-0.26,0.50,0.20,0.60
27.764,-0.15,0.63,-0.05,0.65
27.774,-0.13,0.61,-0.21,0.66
27.784,-0.16,0.36,-0.07,0.39
27.794,-0.19,-0.08,0.11,0.24
27.804,0.01,0.16,0.28,0.33
27.814,0.15,0.54,0.51,0.76
27.824,-0.07,0.57,0.61,0.84
27.834,-0.26,0.51,0.48,0.74
27.844,-0.36,0.45,0.36,0.68
27.854,-0.38,0.44,0.41,0.71
27.864,-0.35,0.49,0.45,0.75
27.874,-0.28,0.46,0.36,0.65
27.884,-0.25,0.34,0.31,0.53
27.894,-0.20,0.27,0.26,0.42
27.904,-0.15,0.16,0.22,0.32
27.914,-0.11,0.21,0.12,0.27
27.925,-0.09,0.28,0.06,0.30
27.935,-0.05,0.32,-0.07,0.33
27.945,-0.02,0.33,-0.16,0.37
27.955,-0.08,0.30,-0.16,0.35
27.965,-0.11,0.18,-0.19,0.29
27.975,-0.06,0.14,-0.18,0.23
27.985,0.02,0.15,-0.13,0.20
27.995,0.07,0.24,-0.14,0.29
28.005,0.08,0.29,-0.15,0.34
28.015,0.06,0.28,-0.21,0.36
28.025,0.05,0.24,-0.32,0.41
28.036,0.02,0.17,-0.33,0.37
28.045,-0.01,0.11,-0.33,0.35
28.056,-0.02,0.12,-0.33,0.35
28.066,0.01,0.22,-0.39,0.45
28.076,0.03,0.31,-0.36,0.47
28.086,0.01,0.34,-0.35,0.49
28.096,-0.02,0.31,-0.39,0.50
28.106,-0.02,0.26,-0.39,0.47
28.116,-0.08,0.23,-0.29,0.38
28.126,-0.05,0.22,-0.20,0.30
28.136,0.04,0.18,-0.20,0.27
28.146,0.08,0.15,-0.19,0.25
28.156,0.02,0.09,-0.18,0.20
28.166,0.04,0.03,-0.15,0.15
28.176,0.09,0.01,-0.15,0.18
28.187,0.16,0.03,-0.17,0.23
28.197,0.24,0.01,-0.17,0.29
28.207,0.26,0.00,-0.18,0.31
28.217,0.21,-0.00,-0.26,0.33
28.227,0.15,0.05,-0.35,0.38
28.237,0.12,0.15,-0.38,0.42
28.247,0.05,0.26,-0.41,0.49
28.257,-0.00,0.27,-0.43,0.50
28.267,-0.03,0.23,-0.43,0.49
28.277,-0.02,0.20,-0.40,0.45
28.287,0.01,0.16,-0.33,0.36
28.297,0.05,0.19,-0.25,0.31
28.307,0.06,0.19,-0.18,0.26
28.317,0.03,0.16,-0.13,0.21
28.327,0.04,0.13,-0.12,0.18
28.337,0.08,0.16,-0.13,0.22
28.348,0.11,0.14,-0.13,0.22
28.358,0.10,0.14,-0.13,0.21
28.368,0.07,0.15,-0.09,0.18
28.378,0.02,0.14,-0.09,0.17
28.388,-0.00,0.14,-0.12,0.18
28.398,0.03,0.20,-0.09,0.22
28.408,0.01,0.20,-0.06,0.21
28.418,0.03,0.24,-0.08,0.25
28.428,0.05,0.23,-0.11,0.26
28.438,0.08,0.20,-0.10,0.24
28.448,0.04,0.17,-0.10,0.20
28.458,-0.01,0.15,-0.10,0.18
28.468,-0.03,0.12,-0.03,0.13
28.478,-0.00,0.10,0.02,0.10
28.488,0.00,0.12,-0.06,0.13
28.499,0.01,0.12,-0.23,0.26
28.509,0.20,0.05,-0.13,0.24
28.519,0.35,0.27,-0.32,0.55
28.529,-0.00,0.54,-0.41,0.68
28.539,-0.27,0.48,-0.66,0.86
28.549,-0.30,0.43,-0.86,1.01
28.559,-0.12,0.38,-0.74,0.84
28.569,0.03,0.29,-0.47,0.55
28.579,0.12,-0.00,-0.09,0.15
28.589,0.24,-0.26,0.30,0.46
