time,ax,ay,az,atotal
0.000,1.65,-0.01,0.10,1.65
0.010,1.89,0.03,0.21,1.90
0.020,2.16,0.05,-0.03,2.16
0.030,2.02,-0.06,-0.17,2.03
0.040,1.46,-0.17,-0.20,1.48
0.050,1.21,-0.17,-0.83,1.48
0.061,1.05,-0.01,-1.71,2.01
0.071,-0.36,-2.17,-0.62,2.28
0.081,0.88,-1.34,-0.66,1.74
0.091,1.47,-0.52,-0.44,1.62
0.101,1.57,-0.18,-0.62,1.70
0.111,1.65,0.36,-0.26,1.71
0.121,1.61,0.77,0.20,1.80
0.131,1.48,0.79,0.16,1.68
0.141,1.07,0.58,-0.06,1.22
0.151,0.83,0.32,-0.19,0.91
0.161,0.91,0.17,-0.02,0.93
0.171,0.82,0.22,0.07,0.86
0.182,0.59,0.36,0.07,0.69
0.191,0.77,0.46,-0.06,0.90
0.202,0.93,0.21,-0.16,0.97
0.212,0.93,-0.36,-0.51,1.12
0.222,0.75,-1.23,-1.00,1.75
0.232,-0.12,-2.28,-2.24,3.19
0.242,-1.90,-2.04,-2.88,4.01
0.252,-3.41,-1.58,0.01,3.76
0.262,-2.60,-2.38,-1.86,3.98
0.272,-2.37,-2.80,-1.03,3.81
0.282,-2.27,-2.53,-1.11,3.57
0.292,-1.91,-2.13,-0.76,2.96
0.302,-0.50,-2.24,-1.00,2.51
0.312,0.40,-1.72,-1.20,2.14
0.322,0.93,-1.08,-0.98,1.73
0.332,1.50,-0.82,-0.76,1.87
0.343,1.92,-0.73,-1.03,2.30
0.353,2.27,-0.67,-1.72,2.93
0.363,2.33,-0.64,-2.58,3.54
0.373,2.00,-0.54,-3.47,4.04
0.383,1.37,-0.43,-4.07,4.32
0.393,0.42,-0.75,-4.59,4.67
0.403,-0.74,-1.29,-5.04,5.25
0.413,-1.47,-1.58,-5.17,5.60
0.423,-1.59,-1.90,-5.14,5.70
0.433,-1.36,-2.21,-5.00,5.64
0.443,-0.94,-2.33,-4.66,5.29
0.453,-0.93,-2.51,-4.52,5.25
0.463,-0.82,-2.39,-4.46,5.13
0.473,-0.34,-2.28,-4.47,5.03
0.484,0.34,-2.51,-4.07,4.79
0.493,0.99,-2.83,-3.39,4.53
0.504,0.49,-2.55,-2.68,3.73
0.514,-0.32,-2.53,-2.03,3.26
0.524,-1.05,-2.80,-1.66,3.42
0.534,-2.18,-3.03,-1.69,4.10
0.544,-3.09,-3.21,-2.02,4.89
0.554,-3.07,-2.58,-2.34,4.64
0.564,-0.38,-1.26,-4.04,4.25
0.574,-0.44,-3.43,0.59,3.50
0.584,-0.83,-2.51,3.29,4.22
0.594,-0.99,-2.24,3.48,4.25
0.604,-0.18,-3.09,4.42,5.40
0.614,-0.29,-2.80,6.16,6.78
0.624,-1.08,-3.00,8.04,8.65
0.635,-0.61,-3.98,9.07,9.93
0.645,-0.43,-3.71,9.26,9.98
0.655,-0.12,-3.24,8.17,8.79
0.665,0.59,-2.66,6.56,7.10
0.675,1.93,-1.91,5.11,5.78
0.685,3.72,-0.76,4.30,5.74
0.695,5.41,0.48,4.39,6.98
0.705,6.05,1.19,5.03,7.96
0.715,6.19,1.50,5.86,8.65
0.725,6.47,1.70,6.08,9.04
0.735,7.01,1.92,5.33,9.01
0.745,7.98,2.32,4.08,9.26
0.755,9.00,2.63,3.13,9.88
0.766,10.14,3.06,3.04,11.02
0.777,10.52,3.36,3.25,11.52
0.786,9.84,3.23,3.20,10.84
0.796,8.18,2.73,2.28,8.92
0.806,6.48,1.95,0.72,6.81
0.816,5.15,1.44,-0.66,5.39
0.826,4.77,1.56,-2.67,5.68
0.836,5.15,1.94,-4.35,7.02
0.846,4.67,2.09,-8.30,9.75
0.856,2.35,1.27,-14.80,15.04
0.866,0.17,1.28,-15.98,16.03
0.876,1.04,1.41,-9.61,9.76
0.887,3.55,1.24,-3.17,4.91
0.896,4.74,1.33,0.71,4.97
0.906,2.87,1.93,1.71,3.86
0.917,-0.93,2.06,0.43,2.30
0.927,-4.09,1.73,-0.85,4.52
0.937,-4.94,1.59,0.63,5.23
0.947,-3.05,2.29,3.31,5.05
0.957,-1.06,2.60,2.67,3.88
0.967,0.09,2.87,-1.66,3.31
0.977,1.23,4.13,-1.22,4.48
0.987,-0.09,3.14,0.00,3.14
0.997,-1.67,2.24,1.25,3.07
1.007,-2.76,2.38,1.51,3.95
1.017,-4.56,2.17,2.16,5.49
1.027,-5.46,1.74,2.14,6.12
1.037,-5.76,1.66,3.25,6.82
1.047,-6.52,1.49,3.89,7.73
1.057,-8.40,0.02,4.06,9.33
1.068,-9.85,-1.65,4.16,10.81
1.078,-9.78,-3.09,3.08,10.70
1.088,-8.74,-3.79,0.53,9.55
1.098,-7.92,-5.42,-1.27,9.68
1.108,-5.43,-5.31,-1.63,7.76
1.118,-1.68,-5.23,-0.98,5.58
1.128,0.86,-5.37,0.36,5.45
1.138,1.18,-5.30,2.87,6.14
1.148,0.86,-5.07,3.12,6.02
1.158,1.09,-4.72,2.32,5.37
1.168,2.41,-3.94,0.86,4.70
1.178,2.68,-2.07,1.03,3.54
1.188,2.23,-0.73,0.45,2.39
1.198,1.64,0.40,-0.93,1.93
1.209,2.14,0.73,-3.09,3.83
1.219,2.70,0.46,-5.26,5.93
1.229,3.12,-0.42,-5.87,6.67
1.239,2.81,-1.00,-3.52,4.61
1.249,3.96,-0.96,-1.67,4.40
1.259,5.25,-1.28,-0.44,5.42
1.269,5.72,-1.89,0.90,6.09
1.279,5.38,-2.26,2.60,6.39
1.289,4.16,-2.33,3.49,5.91
1.299,2.60,-1.76,3.31,4.56
1.309,1.06,-0.86,1.62,2.12
1.319,-0.63,0.29,0.30,0.76
1.329,-1.60,0.81,-0.61,1.90
1.340,-2.42,1.02,-0.64,2.71
1.350,-2.47,0.75,0.22,2.59
1.360,-1.56,-0.01,0.36,1.60
1.370,-1.41,0.10,-0.02,1.41
1.380,-1.46,-0.55,0.58,1.67
1.390,-1.02,-0.49,0.13,1.14
1.400,-0.24,-0.39,-0.50,0.68
1.410,-0.01,-0.55,-0.81,0.97
1.420,0.10,-0.85,-0.89,1.23
1.430,-0.11,-0.56,-0.81,0.99
1.440,-0.63,-0.10,-0.26,0.69
1.450,-0.87,0.19,0.91,1.28
1.460,-0.87,0.67,1.69,2.02
1.470,-0.98,1.01,1.79,2.28
1.480,-0.99,0.97,1.46,2.01
1.490,-0.73,0.89,0.89,1.46
1.501,-0.01,1.61,0.16,1.62
1.511,0.59,2.89,-0.55,3.00
1.521,1.00,3.72,-1.34,4.08
1.531,1.36,2.45,-1.69,3.27
1.541,2.04,1.91,-1.46,3.16
1.551,2.61,0.97,-1.06,2.98
1.561,2.71,-0.78,-0.92,2.97
1.571,2.21,-2.44,-0.50,3.33
1.581,1.92,-4.53,-1.12,5.05
1.591,1.95,-5.96,-2.09,6.61
1.601,1.43,-3.80,-1.30,4.26
1.611,-0.01,-0.36,-0.64,0.73
1.621,-0.40,0.27,-0.43,0.65
1.632,-1.21,-0.18,-0.39,1.29
1.642,-1.83,0.17,0.24,1.85
1.652,-1.56,0.53,0.92,1.88
1.662,-0.79,0.42,1.09,1.42
1.672,-0.38,0.06,1.30,1.35
1.682,0.61,-0.40,1.72,1.87
1.692,1.26,-0.47,1.85,2.29
1.702,0.91,-0.02,1.25,1.55
1.712,0.25,0.59,0.52,0.82
1.722,-0.64,0.23,0.00,0.68
1.732,-0.60,0.06,-0.42,0.74
1.742,-0.04,-0.29,-0.51,0.58
1.752,0.53,-0.34,-0.54,0.83
1.762,-0.50,0.54,-0.60,0.95
1.773,-0.48,1.17,-0.55,1.38
1.783,-0.43,0.98,-0.55,1.20
1.793,-0.41,0.48,-0.63,0.89
1.803,-0.49,-0.08,-0.66,0.83
1.813,-0.76,-0.46,-0.35,0.95
1.823,-0.34,0.28,-0.02,0.44
1.833,-1.07,1.87,-0.01,2.15
1.843,-1.82,3.33,0.01,3.80
1.853,-1.68,4.56,0.08,4.86
1.863,-1.88,4.96,0.35,5.32
1.873,-2.03,5.57,0.73,5.97
1.883,-2.12,5.24,1.03,5.74
1.893,-2.03,3.10,0.94,3.82
1.903,-1.94,-0.06,0.69,2.06
1.914,-2.02,-2.37,0.33,3.13
1.923,-1.94,-3.03,-0.08,3.60
1.934,-1.45,-2.70,-0.04,3.06
1.944,-0.73,-1.50,-0.24,1.69
1.954,0.15,0.43,-0.82,0.94
1.964,0.96,2.11,-1.10,2.57
1.974,1.52,2.43,-1.36,3.17
1.984,1.72,1.47,-1.17,2.54
1.994,1.51,0.66,0.05,1.65
2.004,0.62,-0.37,0.46,0.86
2.014,-0.07,-1.51,0.47,1.58
2.024,0.01,-2.62,-0.04,2.62
2.034,0.96,-3.09,-0.55,3.29
2.044,1.35,-3.94,-1.25,4.35
2.054,1.93,-2.94,-1.71,3.91
2.064,2.23,-1.16,-1.81,3.09
2.075,2.06,-0.04,-1.54,2.57
2.085,2.04,0.12,-1.06,2.30
2.095,1.28,0.92,-0.28,1.60
2.105,1.55,0.27,-0.16,1.58
2.115,1.95,0.21,-0.47,2.01
2.125,1.98,-0.57,-0.86,2.23
2.135,1.70,-1.70,-1.38,2.77
2.145,2.51,-3.05,-1.97,4.42
2.155,2.05,-1.80,-2.10,3.44
2.165,1.21,-0.76,-1.76,2.27
2.175,0.41,-0.64,-0.96,1.23
2.185,-0.02,-0.94,-0.40,1.02
2.196,-0.99,-1.97,-0.33,2.23
2.206,-1.91,-3.00,-0.97,3.68
2.216,-2.43,-3.32,-1.57,4.41
2.226,-2.58,-3.50,-1.75,4.69
2.236,-2.19,-2.92,-1.92,4.12
2.246,-2.11,-1.80,-2.19,3.54
2.256,-1.97,-1.45,-2.30,3.36
2.266,-1.57,-1.91,-2.20,3.32
2.276,-1.28,-2.11,-1.83,3.08
2.286,-1.40,-1.65,-1.11,2.43
2.296,-1.60,-1.25,0.18,2.04
2.306,-1.62,-1.13,1.28,2.36
2.316,-1.37,-0.67,2.03,2.54
2.326,-1.15,-0.08,2.53,2.78
2.336,-0.85,0.33,2.73,2.88
2.347,-0.48,0.53,2.41,2.51
2.357,0.03,0.42,1.73,1.78
2.367,0.58,0.23,1.07,1.24
2.377,1.08,0.33,0.54,1.25
2.387,1.45,0.69,0.18,1.61
2.397,1.68,1.26,-0.05,2.11
2.407,1.74,1.48,-0.06,2.28
2.417,1.32,1.54,0.46,2.08
2.427,0.45,1.63,1.37,2.17
2.437,-0.28,1.40,2.37,2.77
2.447,-0.64,1.39,3.09,3.45
2.457,-0.61,1.55,3.30,3.70
2.467,-0.35,1.60,2.98,3.40
2.478,-0.32,1.43,2.16,2.61
2.488,-0.49,1.10,1.37,1.82
2.498,0.48,0.58,0.88,1.16
2.508,1.32,0.83,0.86,1.78
2.518,1.73,1.23,0.63,2.22
2.528,1.12,1.46,0.30,1.86
2.538,0.54,1.22,0.19,1.35
2.548,2.09,0.46,0.70,2.25
2.558,2.44,0.93,1.45,2.98
2.568,2.00,1.02,1.94,2.97
2.578,1.68,1.56,2.10,3.11
2.588,0.85,1.99,1.84,2.84
2.598,0.03,1.68,1.26,2.10
2.608,-0.42,1.32,0.67,1.54
2.618,-0.75,1.40,0.24,1.61
2.629,-1.30,1.86,0.00,2.27
2.639,-1.41,2.22,0.00,2.63
2.649,-1.18,2.71,-0.24,2.97
2.659,-0.86,2.78,-0.97,3.07
2.669,-0.43,2.23,-2.00,3.03
2.679,0.13,1.31,-2.81,3.11
2.689,0.92,0.72,-3.37,3.57
2.699,1.55,0.21,-3.55,3.88
2.709,1.79,-0.21,-3.59,4.02
2.719,1.65,-0.37,-3.49,3.88
2.729,1.31,0.07,-3.11,3.37
2.739,0.84,0.28,-2.49,2.64
2.749,0.48,0.99,-1.78,2.09
2.759,-0.10,1.33,-1.23,1.81
2.769,-0.90,1.07,-0.82,1.62
2.779,-1.60,1.01,-0.46,1.95
2.790,-1.84,1.40,-0.10,2.31
2.800,-2.01,1.65,0.20,2.61
2.810,-2.11,1.84,0.57,2.86
2.820,-1.98,2.00,0.79,2.93
2.830,-1.70,1.94,0.79,2.70
2.840,-1.25,1.77,0.58,2.24
2.850,-0.64,1.56,0.41,1.74
2.860,-0.06,1.28,0.31,1.32
2.870,0.34,1.07,0.28,1.15
2.880,0.56,0.94,0.23,1.11
2.890,0.70,1.00,0.12,1.23
2.900,0.82,1.24,-0.04,1.49
2.910,0.77,1.48,-0.25,1.69
2.921,0.47,1.65,-0.40,1.76
2.931,0.10,1.47,-0.63,1.60
2.941,-0.06,0.67,-1.33,1.49
2.951,-0.24,-0.97,-2.50,2.69
2.961,-0.40,-3.00,-3.65,4.74
2.971,-0.25,-4.89,-4.10,6.39
2.981,0.25,-6.04,-3.98,7.23
2.991,0.63,-6.54,-3.78,7.58
3.001,0.42,-6.42,-3.34,7.25
3.011,-0.57,-5.64,-2.99,6.40
3.021,-2.14,-4.30,-3.12,5.73
3.031,-2.91,-2.14,-3.01,4.70
3.041,-2.62,-0.40,-1.35,2.98
3.051,-1.90,0.85,0.86,2.25
3.062,-0.91,1.39,1.99,2.59
3.072,0.34,1.42,2.22,2.66
3.082,1.83,1.07,2.36,3.17
3.092,3.46,0.29,2.94,4.55
3.102,4.51,-1.69,3.85,6.17
3.112,4.91,-3.71,4.74,7.77
3.122,4.56,-4.12,5.10,7.98
3.132,3.77,-2.66,4.50,6.45
3.142,2.69,-0.81,3.43,4.44
3.152,1.57,0.23,2.59,3.04
3.162,0.12,0.83,2.20,2.36
3.172,-1.41,1.04,2.00,2.66
3.183,-2.63,1.07,1.87,3.40
3.192,-3.20,0.72,1.68,3.69
3.203,-3.17,-0.01,1.45,3.48
3.212,-2.64,-0.81,1.20,3.01
3.223,-1.77,-1.56,0.78,2.49
3.233,-0.43,-1.78,-0.10,1.83
3.243,0.97,-1.48,-1.37,2.23
3.253,1.88,-0.85,-2.60,3.32
3.263,2.26,-0.15,-3.17,3.90
3.273,1.91,0.34,-2.99,3.57
3.283,1.14,0.56,-2.22,2.55
3.293,0.36,0.38,-1.43,1.52
3.303,-0.25,0.03,-0.72,0.76
3.313,-0.39,-0.18,-0.23,0.49
3.323,-0.29,-0.08,-0.22,0.38
3.333,-0.57,0.31,-0.20,0.68
3.344,-0.76,1.02,-0.01,1.28
3.354,-0.69,1.68,-0.10,1.82
3.364,-0.31,2.13,-0.45,2.19
3.374,-0.22,2.35,-0.87,2.51
3.384,0.00,2.21,-1.23,2.53
3.394,0.32,1.81,-1.56,2.41
3.404,0.62,1.33,-1.74,2.28
3.414,0.86,0.89,-1.42,1.89
3.424,0.71,0.55,-0.88,1.25
3.434,0.55,0.24,-0.61,0.86
3.444,0.66,0.09,-0.81,1.05
3.454,0.69,0.28,-1.01,1.26
3.464,0.52,0.66,-1.06,1.35
3.474,0.49,1.36,-1.49,2.08
3.485,-0.17,1.94,-1.79,2.65
3.495,-1.00,2.06,-1.11,2.55
3.505,-1.57,1.81,-0.09,2.40
3.515,-1.71,1.50,0.43,2.32
3.525,-1.66,1.41,0.59,2.26
3.535,-1.42,1.27,0.61,2.00
3.545,-0.84,0.83,0.34,1.23
3.555,-0.37,0.63,-0.22,0.77
3.565,-0.12,0.83,-0.61,1.03
3.575,0.11,1.15,-0.60,1.31
3.585,0.27,1.32,-0.41,1.41
3.595,0.45,1.39,-0.18,1.47
3.605,0.68,1.36,0.15,1.53
3.615,1.04,1.15,0.11,1.55
3.626,1.55,0.76,-1.09,2.04
3.635,2.55,0.45,-2.80,3.81
3.646,3.97,0.05,-4.97,6.36
3.656,4.97,-0.63,-6.68,8.35
3.666,4.96,-1.62,-6.67,8.47
3.676,4.06,-2.52,-5.54,7.32
3.686,2.88,-2.99,-4.12,5.85
3.696,1.57,-3.01,-2.85,4.44
3.706,0.79,-2.64,-1.64,3.20
3.716,0.24,-2.50,-0.00,2.52
3.726,-0.28,-2.18,1.98,2.96
3.736,-0.20,-1.99,3.49,4.02
3.746,0.32,-2.19,3.85,4.44
3.756,0.99,-2.84,3.58,4.67
3.767,1.68,-3.68,3.30,5.22
3.776,1.83,-4.47,3.40,5.91
3.787,1.28,-4.75,3.52,6.05
3.797,0.13,-4.70,3.39,5.80
3.807,-1.10,-4.00,3.09,5.17
3.817,-2.96,-2.81,2.81,4.95
3.827,-4.09,-1.04,2.48,4.89
3.837,-3.83,0.69,2.08,4.41
3.847,-3.29,2.15,1.94,4.38
3.857,-2.99,3.16,2.37,4.96
3.867,-2.72,3.72,3.15,5.58
3.877,-2.54,3.97,3.65,5.96
3.887,-2.51,3.88,3.63,5.88
3.897,-2.43,3.32,3.17,5.19
3.907,-2.31,2.11,2.68,4.12
3.918,-2.53,0.78,2.40,3.57
3.928,-2.97,-0.04,2.18,3.69
3.938,-3.46,-0.16,2.26,4.14
3.948,-3.77,0.30,2.71,4.65
3.958,-3.89,1.01,3.22,5.15
3.968,-3.82,1.72,3.55,5.49
3.978,-3.39,2.41,3.47,5.42
3.988,-2.51,2.99,3.10,4.98
3.998,-1.47,3.28,2.49,4.37
4.008,-0.45,3.27,1.70,3.71
4.018,0.22,2.98,1.11,3.19
4.028,0.53,2.58,0.83,2.76
4.038,0.83,2.17,0.74,2.43
4.049,1.08,1.60,0.71,2.06
4.058,1.13,0.94,0.59,1.58
4.069,0.89,0.28,0.23,0.97
4.078,0.59,-0.42,-0.37,0.81
4.089,0.30,-0.94,-1.12,1.49
4.099,-0.24,-1.35,-2.17,2.57
4.109,-0.65,-1.31,-3.60,3.88
4.119,-0.51,-1.15,-5.90,6.04
4.129,0.95,-1.46,-8.10,8.29
4.139,3.04,-2.67,-7.96,8.93
4.149,4.69,-4.66,-6.38,9.19
4.159,4.89,-6.07,-5.19,9.36
4.169,4.05,-6.46,-4.74,8.98
4.179,2.12,-5.99,-3.82,7.42
4.190,-0.80,-4.56,-2.07,5.07
4.199,-3.19,-2.49,-0.25,4.06
4.210,-4.65,-0.54,0.82,4.75
4.220,-5.67,1.10,0.97,5.86
4.230,-5.92,2.28,1.28,6.47
4.240,-5.36,2.10,0.06,5.75
4.250,-4.25,-0.77,-3.42,5.51
4.260,0.57,-4.67,-5.84,7.50
4.270,4.06,-6.09,-2.63,7.78
4.280,4.89,-6.45,-0.24,8.10
4.290,5.21,-6.06,-0.25,7.99
4.300,4.09,-4.62,1.13,6.28
4.310,2.73,-1.89,2.62,4.23
4.320,1.85,0.54,3.39,3.90
4.330,1.26,1.93,3.73,4.39
4.340,0.99,2.49,3.66,4.54
4.351,0.76,2.45,3.27,4.16
4.361,1.26,1.26,2.79,3.31
4.371,2.42,-0.49,2.14,3.27
4.381,2.22,-0.90,1.02,2.60
4.391,1.19,-0.58,-0.07,1.33
4.401,0.05,-0.04,-0.83,0.83
4.411,-0.72,0.36,-0.98,1.27
4.421,-0.95,0.69,-0.62,1.33
4.431,-0.84,0.93,0.04,1.25
4.441,-0.58,1.02,0.55,1.29
4.451,0.03,1.00,0.80,1.28
4.461,0.72,0.96,0.75,1.42
4.471,1.38,1.00,0.35,1.74
4.481,1.96,1.13,-0.39,2.30
4.492,2.26,1.29,-0.98,2.78
4.502,2.12,1.42,-1.32,2.88
4.512,1.64,1.49,-1.35,2.60
4.522,1.03,1.48,-1.07,2.10
4.532,0.44,1.36,-0.91,1.70
4.542,-0.17,1.25,-0.76,1.47
4.552,-0.75,1.22,-0.45,1.50
4.562,-1.34,1.06,-0.05,1.71
4.572,-1.80,1.10,0.09,2.11
4.582,-2.24,1.31,0.02,2.60
4.592,-2.36,1.31,-0.14,2.70
4.602,-2.00,1.09,-0.40,2.32
4.612,-1.35,0.90,-0.84,1.83
4.622,-0.65,0.86,-1.52,1.86
4.633,-0.02,0.99,-2.62,2.80
4.643,0.58,0.99,-3.19,3.39
4.653,0.71,0.77,-2.63,2.83
4.663,0.29,0.55,-1.68,1.79
4.673,-0.21,0.53,-1.21,1.34
4.683,-0.55,0.85,-1.43,1.75
4.693,-0.62,1.43,-2.09,2.61
4.703,-0.23,2.08,-3.46,4.04
4.713,0.60,2.37,-5.12,5.68
4.723,2.08,1.83,-6.48,7.05
4.733,3.50,0.51,-6.37,7.29
4.743,4.44,-0.70,-5.82,7.35
4.753,4.68,-1.85,-5.17,7.21
4.763,4.69,-2.90,-3.53,6.55
4.774,4.01,-3.56,-1.34,5.52
4.784,2.48,-3.57,1.60,4.63
4.794,0.95,-3.46,4.15,5.48
4.804,0.25,-3.67,5.48,6.60
4.814,0.43,-4.37,5.74,7.23
4.824,0.65,-5.16,5.31,7.43
4.834,0.57,-5.52,4.35,7.05
4.844,0.10,-5.58,3.64,6.66
4.854,-0.64,-4.90,3.10,5.83
4.864,-1.55,-3.63,2.50,4.67
4.874,-2.38,-2.23,1.44,3.56
4.884,-2.64,-1.27,0.73,3.02
4.894,-2.45,-0.76,1.13,2.80
4.904,-2.09,-0.50,2.15,3.04
4.915,-1.50,-0.16,2.84,3.21
4.925,-0.97,0.21,3.16,3.31
4.935,-0.67,0.53,3.30,3.41
4.945,-0.49,0.73,3.25,3.37
4.955,-0.51,0.80,3.05,3.20
4.965,-0.88,0.77,2.86,3.09
4.975,-1.88,0.72,2.74,3.40
4.985,-3.15,0.79,2.71,4.23
4.995,-4.00,0.92,2.72,4.92
5.005,-4.52,1.12,2.75,5.41
5.015,-4.83,1.45,2.87,5.80
5.025,-5.01,1.89,2.99,6.13
5.035,-5.10,2.44,3.06,6.43
5.045,-4.96,3.12,3.11,6.63
5.056,-4.72,3.83,3.23,6.88
5.065,-4.40,4.40,3.30,7.05
5.076,-3.90,4.73,3.30,6.96
5.086,-3.23,4.82,3.36,6.71
5.096,-2.47,4.84,3.23,6.32
5.106,-1.66,4.81,2.75,5.79
5.116,-0.82,4.73,1.96,5.18
5.126,0.20,4.64,0.76,4.71
5.136,1.58,4.12,-0.81,4.48
5.146,3.23,2.74,-3.21,5.31
5.156,4.91,0.88,-6.89,8.50
5.166,5.98,-0.61,-9.49,11.23
5.176,6.11,-1.39,-10.36,12.11
5.186,5.43,-1.74,-10.72,12.14
5.196,5.18,-2.57,-9.47,11.10
5.207,5.62,-4.34,-7.53,10.35
5.217,5.53,-5.86,-4.21,9.09
5.227,4.15,-6.47,-1.61,7.85
5.237,1.42,-6.31,1.51,6.64
5.247,-1.25,-5.42,4.28,7.02
5.257,-3.29,-4.51,4.43,7.13
5.267,-4.82,-2.80,4.08,6.91
5.277,-4.97,-0.17,4.38,6.63
5.287,-4.30,1.77,4.55,6.50
5.297,-3.35,2.41,4.20,5.89
5.307,-2.28,0.46,3.73,4.40
5.317,-0.62,-3.93,2.50,4.70
5.327,4.80,-9.86,-5.83,12.42
5.338,8.61,-13.44,-13.93,21.18
5.348,7.56,-13.22,-12.09,19.44
5.358,3.16,-10.00,-2.42,10.76
5.368,0.31,-4.89,4.88,6.91
5.378,-0.53,-1.88,5.63,5.96
5.388,-0.71,-0.23,5.28,5.33
5.398,-0.89,1.19,5.29,5.49
5.408,-1.16,2.17,5.07,5.63
5.418,-1.26,2.21,4.99,5.61
5.428,-0.88,0.90,5.23,5.38
5.438,-0.30,-0.30,5.06,5.08
5.448,0.37,-0.58,4.31,4.37
5.458,0.89,-0.24,3.55,3.67
5.468,0.87,0.53,2.94,3.12
5.478,0.44,1.38,2.22,2.65
5.489,-0.11,2.09,0.82,2.25
5.499,-0.47,2.47,-1.68,3.03
5.509,0.05,2.53,-4.84,5.46
5.519,1.33,2.19,-6.68,7.15
5.529,2.19,1.92,-5.67,6.38
5.539,1.99,2.05,-2.92,4.09
5.549,1.41,2.44,-0.10,2.81
5.559,1.41,2.85,0.99,3.33
5.569,1.62,3.11,0.90,3.62
5.579,1.34,3.27,0.50,3.57
5.589,1.14,3.37,-0.19,3.57
5.599,1.10,3.48,-0.98,3.78
5.609,1.17,3.45,-1.48,3.93
5.620,1.30,3.24,-1.31,3.73
5.629,1.11,3.06,-0.84,3.36
5.640,0.80,2.94,-0.14,3.05
5.650,0.46,2.87,0.17,2.91
5.660,0.38,2.83,0.05,2.86
5.670,0.35,2.82,-0.01,2.84
5.680,0.29,2.81,-0.30,2.84
5.690,0.34,2.80,-0.85,2.95
5.700,0.35,2.61,-1.02,2.82
5.710,0.19,2.42,-0.94,2.60
5.720,-0.42,2.15,-0.17,2.20
5.730,-0.96,1.82,0.30,2.08
5.740,-0.87,1.56,-0.11,1.79
5.750,0.17,0.94,-1.42,1.71
5.760,1.88,-0.26,-3.97,4.40
5.770,3.47,-1.56,-6.87,7.85
5.781,4.95,-2.70,-8.64,10.32
5.791,5.75,-3.38,-8.44,10.76
5.801,5.51,-3.67,-6.22,9.09
5.811,4.89,-3.86,-3.88,7.34
5.821,4.27,-4.43,-2.00,6.47
5.831,3.52,-5.44,-0.35,6.49
5.841,2.75,-6.69,1.66,7.42
5.851,2.44,-7.88,3.33,8.90
5.861,1.82,-8.91,4.23,10.03
5.871,0.71,-9.25,4.38,10.26
5.881,-0.19,-8.06,4.24,9.11
5.891,-0.95,-5.04,3.84,6.40
5.902,-2.29,-1.70,3.41,4.45
5.911,-3.59,0.60,3.60,5.12
5.922,-4.37,2.00,4.08,6.31
5.932,-4.35,2.74,4.13,6.59
5.942,-3.37,2.68,4.10,5.95
5.952,-2.27,1.56,4.43,5.22
5.962,-2.00,0.30,4.54,4.97
5.972,-2.31,-0.41,4.24,4.85
5.982,-2.69,-0.61,3.65,4.57
5.992,-3.00,-0.40,2.81,4.13
6.002,-3.21,-0.01,2.23,3.91
6.012,-3.31,0.44,2.11,3.95
6.022,-3.50,0.94,2.09,4.18
6.032,-3.75,1.46,2.04,4.52
6.042,-4.11,2.00,1.96,4.97
6.052,-4.49,2.30,1.87,5.38
6.063,-4.52,2.62,1.99,5.59
6.073,-4.34,2.79,2.28,5.64
6.083,-3.97,2.92,2.63,5.59
6.093,-3.39,3.17,2.83,5.44
6.103,-2.73,3.56,2.86,5.32
6.113,-2.20,4.00,2.71,5.31
6.123,-1.83,4.51,2.43,5.44
6.133,-1.61,4.91,1.81,5.47
6.143,-1.61,4.82,0.91,5.16
6.153,-1.57,4.12,-0.34,4.42
6.163,-0.35,2.32,-2.32,3.30
6.173,1.65,0.47,-5.52,5.78
6.183,3.60,-1.02,-7.66,8.53
6.193,4.90,-1.83,-7.62,9.24
6.204,5.22,-2.19,-6.76,8.82
6.214,4.80,-1.93,-5.83,7.80
6.224,4.27,-1.09,-5.07,6.72
6.234,3.35,-0.95,-4.99,6.08
6.244,2.74,-2.00,-5.23,6.23
6.254,2.03,-3.49,-5.79,7.06
6.264,1.43,-4.21,-4.32,6.20
6.274,0.76,-4.19,-1.41,4.48
6.284,-0.29,-4.86,-0.66,4.91
6.294,-1.28,-5.11,0.51,5.30
6.304,-2.41,-4.67,1.58,5.48
6.314,-2.96,-3.42,1.89,4.90
6.324,-2.29,-1.84,2.06,3.59
6.334,-1.51,-0.98,2.33,2.95
6.345,-0.72,-1.66,2.41,3.02
6.355,0.49,-3.25,2.23,3.97
6.365,2.59,-4.64,1.30,5.48
6.375,5.64,-5.32,-0.30,7.76
6.385,7.16,-5.00,-1.72,8.90
6.395,6.63,-3.03,-3.49,8.08
6.405,3.59,-0.73,-3.24,4.90
6.415,1.18,0.51,0.40,1.35
6.425,0.52,0.49,3.20,3.28
6.435,0.68,0.37,3.33,3.42
6.445,0.18,0.23,2.86,2.87
6.455,-0.36,0.21,2.91,2.94
6.465,-0.55,0.44,2.81,2.90
6.475,-0.62,0.89,2.51,2.73
6.486,-0.69,1.37,2.21,2.69
6.495,-0.62,1.83,1.98,2.77
6.506,-0.47,2.25,1.83,2.93
6.516,-0.20,2.53,1.68,3.05
6.526,0.18,2.81,1.36,3.12
6.536,0.56,2.90,0.76,3.06
6.546,0.67,2.76,-0.00,2.84
6.556,0.14,2.51,-1.06,2.73
6.566,-0.69,2.34,-2.55,3.53
6.576,-1.44,2.24,-4.17,4.95
6.586,-1.87,2.12,-4.42,5.25
6.596,-1.69,2.11,-2.72,3.83
6.606,-1.20,2.48,-1.75,3.26
6.616,-1.01,2.87,-1.30,3.31
6.626,-0.95,3.08,-0.38,3.24
6.637,-0.53,3.10,0.41,3.17
6.647,-0.01,3.05,0.53,3.09
6.657,0.34,3.20,0.09,3.22
6.667,0.53,3.45,-1.01,3.63
6.677,0.95,3.75,-2.66,4.69
6.687,1.62,3.82,-4.39,6.04
6.697,2.13,3.42,-5.11,6.51
6.707,2.33,2.98,-4.80,6.11
6.717,2.22,2.29,-4.19,5.26
6.727,2.16,1.23,-4.52,5.16
6.737,2.53,0.06,-5.32,5.89
6.747,2.88,-1.11,-4.41,5.38
6.757,2.80,-1.99,-1.65,3.81
6.768,2.92,-3.14,0.20,4.29
6.777,3.72,-5.14,1.14,6.45
6.788,4.82,-7.65,2.17,9.29
6.798,5.98,-10.96,3.16,12.88
6.808,6.43,-14.20,3.82,16.05
6.818,4.24,-15.90,3.75,16.88
6.828,-0.21,-15.13,3.31,15.49
6.838,-4.02,-10.74,2.07,11.65
6.848,-5.82,-5.46,0.35,7.99
6.858,-6.81,-1.48,-0.14,6.97
6.868,-7.23,1.14,0.70,7.35
6.878,-6.82,2.95,1.71,7.62
6.888,-5.76,3.85,2.62,7.41
6.898,-4.16,4.24,3.33,6.80
6.909,-2.38,3.75,3.80,5.85
6.919,-1.39,2.19,4.29,5.01
6.929,-0.89,0.96,4.27,4.47
6.939,-1.04,0.20,3.35,3.52
6.949,-1.70,-0.04,2.47,3.00
6.959,-2.48,0.34,1.97,3.19
6.969,-3.17,1.00,1.93,3.85
6.979,-3.66,1.69,2.25,4.62
6.989,-3.79,2.19,2.63,5.10
6.999,-3.66,2.51,2.92,5.31
7.009,-3.35,2.78,3.03,5.30
7.019,-3.02,3.03,3.05,5.25
7.029,-2.50,3.20,3.08,5.10
7.039,-2.11,3.38,2.95,4.96
7.050,-1.93,3.80,2.37,4.88
7.059,-1.61,4.41,0.83,4.76
7.070,-0.43,4.88,-3.24,5.87
7.080,2.09,5.03,-8.64,10.22
7.090,3.94,4.70,-9.15,11.01
7.100,4.49,4.18,-6.81,9.17
7.110,4.47,3.77,-5.33,7.91
7.120,3.86,3.40,-5.99,7.89
7.130,3.47,2.68,-8.15,9.26
7.140,3.72,0.66,-9.81,10.51
7.150,3.75,-2.26,-6.91,8.19
7.160,2.01,-4.01,1.34,4.68
7.170,-0.16,-4.70,4.84,6.75
7.180,-1.73,-6.06,3.85,7.39
7.190,-2.10,-7.13,3.41,8.18
7.200,-1.20,-7.55,3.70,8.49
7.211,-0.84,-6.69,3.94,7.81
7.221,-0.76,-4.51,4.34,6.30
7.231,-0.24,-2.19,4.65,5.15
7.241,0.12,-1.88,4.72,5.08
7.251,0.46,-3.90,4.55,6.01
7.261,2.11,-7.04,5.67,9.29
7.271,5.36,-9.35,4.51,11.68
7.281,7.79,-9.60,-2.21,12.56
7.291,10.47,-6.86,-19.87,23.48
7.301,6.19,-3.02,-22.21,23.25
7.311,1.20,-1.60,-1.83,2.71
7.321,-0.59,-0.58,5.58,5.64
7.332,-1.37,0.14,5.61,5.78
7.341,-1.67,1.37,5.58,5.98
7.352,-2.07,2.41,5.01,5.93
7.361,-2.53,2.58,4.39,5.69
7.372,-2.42,2.08,3.59,4.80
7.382,-1.95,1.57,2.89,3.82
7.392,-1.55,1.49,2.36,3.19
7.402,-1.06,1.69,2.01,2.83
7.412,-0.78,2.06,1.73,2.80
7.422,-0.93,2.58,1.30,3.04
7.432,-1.05,3.73,-0.32,3.89
7.442,-0.41,5.26,-5.47,7.60
7.452,0.97,5.52,-11.67,12.94
7.462,1.32,4.85,-9.50,10.75
7.472,0.22,4.17,-1.98,4.62
7.482,-1.64,3.85,1.03,4.31
7.493,-2.36,3.69,0.93,4.48
7.503,-1.90,3.58,0.47,4.08
7.513,-0.40,3.39,0.09,3.42
7.523,1.10,3.10,-0.80,3.38
7.533,1.77,2.99,-1.63,3.84
7.543,2.25,2.92,-2.52,4.46
7.553,2.87,2.78,-2.96,4.98
7.563,3.64,2.58,-3.04,5.40
7.573,4.25,2.25,-3.10,5.72
7.583,4.94,1.58,-3.49,6.25
7.593,5.97,0.43,-4.01,7.20
7.603,6.75,-1.19,-3.92,7.89
7.613,6.80,-3.03,-2.61,7.88
7.623,6.27,-4.64,-0.74,7.83
7.634,5.17,-6.16,0.92,8.10
7.644,4.07,-7.75,1.83,8.94
7.654,3.27,-9.37,1.87,10.10
7.664,2.22,-10.22,1.71,10.60
7.674,-0.47,-10.45,1.69,10.59
7.684,-2.85,-9.12,1.47,9.67
7.694,-4.40,-6.99,1.20,8.35
7.704,-5.41,-4.40,1.44,7.12
7.714,-6.34,-2.02,1.88,6.92
7.724,-7.01,-0.19,2.25,7.37
7.734,-6.81,1.30,2.27,7.30
7.744,-5.23,2.31,1.82,6.00
7.754,-3.09,1.83,1.57,3.92
7.764,-1.08,0.70,1.73,2.16
7.775,0.32,-0.13,2.09,2.12
7.785,1.12,-0.49,2.50,2.78
7.795,1.30,-0.25,2.44,2.78
7.805,0.26,0.64,1.70,1.84
7.815,-1.21,1.20,1.37,2.19
7.825,-2.23,1.50,1.37,3.02
7.835,-3.20,1.70,1.41,3.89
7.845,-4.13,1.84,1.43,4.74
7.855,-4.94,1.87,1.51,5.50
7.865,-5.49,1.86,1.61,6.01
7.875,-5.61,1.82,1.73,6.14
7.885,-5.35,1.81,1.92,5.96
7.895,-4.85,1.84,2.11,5.60
7.905,-4.35,1.94,2.25,5.27
7.916,-3.92,2.10,2.29,5.01
7.926,-3.56,2.28,2.21,4.77
7.936,-3.12,2.45,2.05,4.46
7.946,-2.54,2.54,1.93,4.08
7.956,-1.80,2.53,1.80,3.59
7.966,-0.86,2.30,1.50,2.88
7.976,0.32,1.90,0.65,2.03
7.986,2.15,1.32,-2.13,3.30
7.996,5.17,0.70,-8.33,9.83
8.006,8.09,0.18,-11.77,14.28
8.016,9.40,-0.34,-10.52,14.12
8.026,8.84,-0.75,-7.79,11.81
8.036,7.30,-0.49,-6.60,9.85
8.046,6.19,0.32,-8.56,10.57
8.057,5.77,0.30,-11.76,13.10
8.067,5.14,-1.57,-12.26,13.39
8.077,3.01,-2.95,-8.03,9.07
8.087,-0.51,-2.99,-2.51,3.94
8.097,-3.90,-2.24,3.42,5.65
8.107,-5.62,-2.15,4.89,7.76
8.117,-3.88,-1.53,2.88,5.07
8.127,-1.88,-1.33,2.34,3.29
8.137,-0.74,-1.95,2.75,3.45
8.147,0.15,-3.01,2.98,4.24
8.157,1.32,-4.70,2.96,5.71
8.167,2.66,-6.75,2.81,7.78
8.177,3.55,-8.60,2.95,9.76
8.187,3.54,-10.04,3.53,11.22
8.198,2.99,-10.17,4.46,11.50
8.208,2.47,-8.08,4.48,9.56
8.218,1.28,-4.64,4.12,6.34
8.228,0.38,-2.66,3.37,4.31
8.238,-0.46,-1.59,2.56,3.05
8.248,-1.15,-0.69,2.09,2.49
8.258,-1.69,0.16,1.87,2.52
8.268,-1.90,0.69,1.60,2.58
8.278,-1.99,0.70,1.35,2.50
8.288,-1.94,0.37,1.26,2.34
8.298,-1.87,-0.13,1.25,2.25
8.308,-1.95,-0.77,1.33,2.48
8.318,-1.96,-1.42,1.34,2.77
8.328,-1.84,-1.82,1.37,2.93
8.339,-1.99,-1.76,1.52,3.06
8.349,-2.13,-1.31,1.55,2.94
8.359,-2.38,-0.83,1.47,2.92
8.369,-2.43,-0.51,1.36,2.83
8.379,-2.45,-0.42,1.23,2.78
8.389,-2.34,-0.30,1.04,2.58
8.399,-2.10,-0.11,0.78,2.25
8.409,-1.85,0.08,0.54,1.93
8.419,-1.68,0.19,0.25,1.70
8.429,-1.42,0.24,-0.09,1.44
8.439,-1.02,0.29,-0.46,1.15
8.449,-0.60,0.38,-0.76,1.04
8.459,-0.25,0.52,-1.02,1.18
8.469,0.05,0.77,-1.24,1.46
8.480,0.38,1.08,-1.37,1.78
8.490,0.82,1.33,-1.46,2.14
8.500,1.40,1.49,-1.70,2.66
8.510,2.21,1.50,-2.21,3.47
8.520,3.17,1.32,-2.88,4.48
8.530,4.09,1.08,-4.18,5.95
8.540,5.79,1.00,-12.34,13.67
8.550,6.40,0.64,-19.24,20.28
8.560,4.47,0.17,-10.07,11.02
8.570,3.01,0.09,-2.73,4.06
8.580,2.43,-0.04,-0.65,2.52
8.590,2.99,-0.91,-0.89,3.25
8.600,4.07,-2.99,-2.95,5.85
8.610,4.37,-5.54,-9.03,11.46
8.620,3.20,-7.62,-13.79,16.08
8.630,1.66,-8.09,-10.74,13.55
8.641,0.59,-7.26,-5.41,9.08
8.651,-0.59,-6.15,-1.41,6.34
8.661,-1.75,-5.15,1.49,5.64
8.671,-2.29,-4.34,3.62,6.10
8.681,-2.15,-3.95,4.85,6.62
8.691,-1.92,-3.87,5.53,7.02
8.701,-2.10,-4.31,5.96,7.65
8.711,-2.62,-5.22,6.45,8.70
8.721,-2.66,-5.72,6.67,9.18
8.731,-2.04,-5.99,5.50,8.38
8.741,-2.69,-6.47,3.51,7.84
8.751,-3.72,-5.80,0.59,6.92
8.762,-4.47,-3.99,-2.99,6.70
8.772,-4.43,-2.03,-3.61,6.06
8.782,-4.09,-0.71,-1.39,4.38
8.792,-3.79,0.30,0.37,3.82
8.802,-3.51,1.22,1.79,4.12
8.812,-3.12,2.00,2.88,4.69
8.822,-3.02,2.46,3.80,5.45
8.832,-2.98,2.70,4.48,6.02
8.842,-2.72,3.08,4.88,6.38
8.852,-2.43,3.26,4.91,6.38
8.862,-2.15,3.32,4.42,5.93
8.872,-1.84,3.13,3.24,4.87
8.882,-1.62,2.55,1.68,3.46
8.892,-1.74,1.79,0.87,2.64
8.903,-2.20,1.17,1.15,2.74
8.912,-2.64,0.87,1.56,3.19
8.923,-2.93,0.90,1.89,3.60
8.933,-2.96,1.07,2.28,3.89
8.943,-2.80,1.28,2.53,3.99
8.953,-2.54,1.50,2.45,3.83
8.963,-2.11,1.80,2.21,3.55
8.973,-1.62,2.11,1.92,3.28
8.983,-1.22,2.38,1.53,3.08
8.993,-0.88,2.60,1.04,2.93
9.003,-0.59,2.73,0.43,2.82
9.013,-0.37,2.75,-0.22,2.78
9.023,-0.17,2.68,-0.86,2.82
9.033,0.06,2.50,-1.51,2.92
9.043,0.34,2.23,-2.18,3.14
9.053,0.63,1.70,-2.94,3.45
9.064,0.93,0.85,-3.87,4.07
9.074,1.42,-0.33,-5.34,5.53
9.084,2.17,-1.69,-7.06,7.58
9.094,2.88,-3.11,-8.28,9.30
9.104,3.22,-4.20,-8.74,10.22
9.114,2.77,-4.34,-8.50,9.94
9.124,1.70,-3.31,-7.98,8.80
9.134,0.37,-1.67,-7.45,7.64
9.144,-0.88,-0.17,-6.72,6.78
9.154,-1.71,1.12,-5.71,6.06
9.164,-2.04,1.93,-4.15,5.01
9.174,-1.69,1.22,-2.74,3.45
9.184,-0.53,-1.32,-1.50,2.06
9.194,0.57,-4.19,-0.44,4.26
9.205,1.31,-6.00,0.71,6.18
9.215,1.71,-6.58,1.77,7.03
9.225,1.11,-6.81,1.46,7.06
9.235,-0.36,-5.86,1.67,6.10
9.245,-1.80,-3.38,2.40,4.52
9.255,-3.26,-0.44,2.48,4.12
9.265,-4.43,1.67,2.27,5.25
9.275,-4.80,2.85,2.81,6.25
9.285,-4.30,3.13,3.84,6.56
9.295,-3.63,2.57,4.16,6.09
9.305,-3.19,1.03,4.06,5.27
9.315,-2.49,-0.89,4.14,4.92
9.325,-1.67,-2.82,4.38,5.47
9.335,-0.85,-4.14,4.48,6.16
9.346,-0.29,-4.90,4.54,6.69
9.356,0.40,-4.44,4.55,6.37
9.366,0.62,-3.13,4.33,5.37
9.376,0.21,-1.82,3.89,4.30
9.386,-0.30,-0.74,3.31,3.41
9.396,-0.67,0.03,2.64,2.73
9.406,-0.80,0.54,1.99,2.21
9.416,-0.74,0.81,1.42,1.80
9.426,-0.54,1.03,0.99,1.53
9.436,-0.37,1.24,0.64,1.44
9.446,-0.23,1.43,0.29,1.48
9.456,-0.01,1.58,-0.07,1.58
9.466,0.33,1.57,-0.59,1.71
9.476,0.85,1.47,-1.16,2.06
9.487,1.30,1.24,-1.59,2.40
9.497,1.43,1.06,-1.83,2.55
9.507,1.12,1.09,-2.00,2.54
9.517,0.45,1.30,-2.18,2.58
9.527,-0.20,1.41,-2.11,2.55
9.537,-0.60,1.27,-1.76,2.25
9.547,-0.79,0.83,-1.18,1.64
9.557,-0.83,0.34,-0.75,1.17
9.567,-0.77,0.02,-0.59,0.97
9.577,-0.84,-0.19,-0.44,0.97
9.587,-0.91,-0.31,-0.31,1.01
9.597,-0.87,-0.37,-0.21,0.97
9.607,-0.65,-0.47,-0.18,0.82
9.617,-0.32,-0.60,-0.13,0.70
9.627,-0.02,-0.71,-0.06,0.72
9.638,0.18,-0.80,0.04,0.82
9.648,0.37,-0.79,0.15,0.88
9.658,0.57,-0.56,0.18,0.82
9.668,0.74,-0.20,0.16,0.79
9.678,0.78,0.14,0.05,0.79
9.688,0.83,0.38,-0.21,0.93
9.698,0.90,0.56,-0.62,1.23
9.708,0.96,0.60,-1.02,1.52
9.718,0.98,0.50,-1.42,1.80
9.728,0.83,0.32,-1.79,2.00
9.738,0.61,0.18,-2.11,2.20
9.748,0.31,0.17,-2.47,2.50
9.758,0.24,0.19,-3.37,3.38
9.769,1.62,0.13,-8.16,8.33
9.779,4.39,0.01,-15.84,16.44
9.789,4.87,-0.31,-11.73,12.70
9.799,3.78,-0.74,-3.83,5.43
9.809,3.74,-1.77,-0.43,4.16
9.819,5.25,-3.01,-0.43,6.07
9.829,6.80,-3.81,-2.45,8.17
9.839,5.95,-3.99,-5.79,9.21
9.849,2.94,-3.34,-6.78,8.11
9.859,0.25,-2.78,-3.78,4.70
9.869,-1.47,-2.63,-0.42,3.05
9.879,-2.20,-2.58,2.19,4.03
9.889,-2.30,-2.60,3.36,4.83
9.899,-2.23,-3.00,3.65,5.22
9.910,-2.38,-3.47,3.92,5.75
9.919,-2.56,-3.57,4.03,5.96
9.930,-2.82,-4.09,3.94,6.34
9.940,-2.65,-4.81,3.86,6.71
9.950,-2.09,-4.89,3.95,6.62
9.960,-1.82,-4.99,3.79,6.53
9.970,-1.83,-4.74,2.85,5.83
9.980,-1.72,-3.71,1.15,4.25
9.990,-1.39,-2.45,-0.58,2.87
10.000,-1.44,-1.69,-1.43,2.64
10.010,-1.62,-1.24,-1.06,2.30
10.020,-1.76,-0.85,-0.11,1.95
10.030,-1.87,-0.38,0.82,2.07
10.040,-2.08,0.15,1.53,2.58
10.051,-2.52,0.64,1.90,3.22
10.060,-2.99,1.00,2.15,3.82
10.071,-3.50,1.12,2.12,4.25
10.081,-4.05,0.98,1.74,4.52
10.091,-4.47,0.59,1.28,4.69
10.101,-4.82,0.19,1.07,4.94
10.111,-5.10,-0.05,1.04,5.20
10.121,-5.37,-0.18,1.06,5.48
10.131,-5.48,-0.12,1.11,5.60
10.141,-5.45,0.07,1.18,5.58
10.151,-5.27,0.31,1.24,5.42
10.161,-4.89,0.52,1.28,5.08
10.171,-4.28,0.69,1.25,4.51
10.181,-3.43,0.89,1.03,3.69
10.191,-2.46,1.11,0.82,2.82
10.202,-1.62,1.28,0.66,2.17
10.212,-1.02,1.45,0.51,1.85
10.222,-0.57,1.60,0.53,1.78
10.232,-0.09,1.83,0.71,1.97
10.242,0.24,2.10,0.89,2.30
10.252,0.43,2.42,0.90,2.62
10.262,0.56,2.74,0.68,2.88
10.272,0.37,2.96,0.25,2.99
10.282,-0.12,2.90,-0.22,2.91
10.292,-0.58,2.57,-0.48,2.68
10.302,-1.03,2.26,-0.46,2.53
10.312,-1.57,2.11,-0.33,2.65
10.322,-2.11,2.04,-0.19,2.94
10.332,-2.42,1.95,-0.06,3.11
10.342,-2.44,1.75,-0.13,3.00
10.353,-2.22,1.46,-0.53,2.71
10.363,-1.92,1.16,-1.39,2.63
10.373,-1.47,0.87,-2.43,2.97
10.383,-0.90,0.60,-3.21,3.38
10.393,-0.29,0.33,-3.40,3.42
10.403,0.21,0.03,-3.63,3.64
10.413,0.53,-0.25,-3.85,3.89
10.423,0.62,-0.37,-3.55,3.63
10.433,0.47,-0.23,-2.87,2.92
10.443,0.26,0.08,-2.28,2.30
10.453,0.24,0.32,-1.82,1.86
10.463,0.29,0.34,-1.55,1.62
10.474,0.41,0.15,-1.33,1.40
10.483,0.48,-0.06,-1.29,1.38
10.494,0.48,-0.28,-1.53,1.63
10.504,0.37,-0.49,-2.06,2.15
10.514,0.32,-0.89,-2.73,2.89
10.524,0.23,-1.58,-3.18,3.55
10.534,0.26,-2.13,-2.86,3.57
10.544,0.09,-2.17,-1.68,2.75
10.554,-0.83,-1.49,0.87,1.92
10.564,-1.97,-0.48,3.20,3.78
10.574,-2.82,0.29,3.86,4.79
10.584,-3.06,0.23,3.96,5.01
10.594,-2.29,-1.09,3.46,4.29
10.604,-1.16,-3.55,3.12,4.87
10.614,0.89,-6.99,2.09,7.35
10.624,4.48,-10.87,-0.44,11.77
10.635,6.65,-12.92,-3.55,14.96
10.645,7.37,-13.55,-11.39,19.18
10.655,1.35,-9.87,-11.28,15.05
10.665,-3.01,-6.56,-0.83,7.26
10.675,-4.31,-4.41,6.70,9.11
10.685,-4.99,-1.69,8.71,10.18
10.695,-4.94,0.43,8.96,10.24
10.705,-4.40,1.16,7.22,8.53
10.715,-4.03,2.35,6.28,7.82
10.725,-3.14,2.82,5.87,7.23
10.735,-2.29,1.52,5.81,6.43
10.745,-0.76,0.15,6.29,6.34
10.755,1.11,-0.87,5.93,6.10
10.765,2.71,-1.42,4.04,5.07
10.776,3.86,-1.47,0.73,4.19
10.785,3.69,-1.00,-4.68,6.04
10.796,2.71,-0.54,-10.74,11.09
10.806,3.01,-0.64,-9.50,9.98
10.816,3.60,-0.89,-3.20,4.90
10.826,3.09,-0.84,-0.07,3.20
10.836,1.99,-0.65,1.30,2.46
10.846,1.36,-0.03,2.34,2.71
10.856,0.97,0.92,2.36,2.71
10.866,0.36,1.92,1.70,2.59
10.876,-0.27,2.83,0.90,2.98
10.886,-0.79,3.49,-0.22,3.59
10.896,-1.18,3.85,-1.73,4.39
10.906,-1.16,3.87,-3.09,5.08
10.917,-0.72,3.41,-3.70,5.08
10.927,0.04,2.77,-3.13,4.18
10.937,0.75,2.17,-2.06,3.08
10.947,1.11,1.78,-1.34,2.49
10.957,1.30,1.60,-1.22,2.40
10.967,1.35,1.59,-1.31,2.47
10.977,1.11,1.76,-1.35,2.48
10.987,0.53,2.11,-1.05,2.41
10.997,-0.28,2.56,-0.71,2.67
11.007,-0.97,3.01,-0.35,3.18
11.017,-1.34,3.62,-0.31,3.87
11.027,-1.71,4.33,-0.89,4.74
11.038,-1.64,4.74,-1.18,5.15
11.047,-1.98,4.85,-0.20,5.25
11.058,-2.28,4.64,1.19,5.30
11.068,-2.31,4.26,1.84,5.19
11.078,-1.89,3.79,1.94,4.66
11.088,-1.21,3.21,1.75,3.85
11.098,-0.25,2.64,0.94,2.81
11.108,1.03,2.15,-0.81,2.52
11.118,2.72,1.76,-4.65,5.66
11.128,4.23,0.95,-8.80,9.81
11.138,4.08,-0.22,-6.69,7.84
11.148,3.02,-1.34,-3.32,4.69
11.158,2.73,-2.81,-3.75,5.42
11.168,3.02,-4.53,-5.54,7.77
11.178,2.93,-5.79,-5.56,8.54
11.188,2.45,-6.14,-3.15,7.32
11.199,1.87,-5.85,-0.11,6.15
11.209,1.55,-5.51,1.90,6.03
11.219,1.52,-5.83,2.33,6.46
11.229,1.92,-6.95,2.51,7.64
11.239,2.47,-7.78,2.64,8.58
11.249,2.00,-7.82,3.03,8.63
11.259,0.54,-6.75,3.62,7.68
11.269,-1.79,-5.02,3.54,6.40
11.279,-4.06,-2.65,2.72,5.56
11.289,-5.10,-0.61,2.01,5.51
11.299,-5.19,0.73,1.65,5.49
11.309,-4.43,1.16,1.95,4.98
11.319,-3.54,0.81,2.58,4.46
11.329,-3.33,0.15,3.07,4.53
11.340,-3.70,-0.37,3.03,4.80
11.350,-3.89,-0.60,2.51,4.67
11.360,-3.98,-0.79,1.89,4.47
11.370,-4.18,-0.82,1.35,4.47
11.380,-4.61,-0.31,1.11,4.75
11.390,-5.06,0.65,1.21,5.24
11.400,-5.59,1.59,1.33,5.96
11.410,-6.00,2.35,1.46,6.61
11.420,-6.10,2.92,1.73,6.98
11.430,-5.76,3.40,2.19,7.04
11.440,-4.71,3.97,2.54,6.67
11.450,-3.58,4.18,2.62,6.09
11.460,-1.83,4.62,2.48,5.55
11.470,-0.20,4.69,1.58,4.96
11.481,2.01,4.37,0.08,4.81
11.490,4.08,3.25,-1.34,5.38
11.501,5.45,1.74,-2.27,6.15
11.510,6.12,0.28,-2.70,6.69
11.521,6.02,-0.56,-3.07,6.78
11.531,5.41,-0.70,-3.75,6.62
11.541,4.51,-0.10,-4.61,6.45
11.551,3.47,0.86,-5.62,6.66
11.561,2.71,1.71,-6.77,7.49
11.571,2.60,1.72,-8.49,9.05
11.581,3.51,0.34,-7.81,8.57
11.591,4.55,-2.14,-5.28,7.29
11.601,3.04,-4.01,-2.18,5.48
11.611,-0.42,-4.04,1.56,4.35
11.622,-3.18,-3.48,3.19,5.69
11.631,-4.77,-2.88,2.66,6.17
11.642,-4.58,-2.16,1.65,5.33
11.652,-3.37,-2.69,0.55,4.35
11.662,-1.08,-4.59,0.66,4.76
11.672,1.45,-6.80,1.53,7.12
11.682,3.84,-9.39,-1.15,10.21
11.692,7.81,-12.13,-10.60,17.90
11.702,4.95,-11.20,-9.08,15.25
11.712,-0.43,-7.09,0.56,7.12
11.722,-2.11,-4.74,5.42,7.50
11.732,-2.00,-3.08,5.49,6.60
11.742,-1.78,-1.74,5.20,5.77
11.752,-2.28,-1.06,5.44,6.00
11.762,-2.66,-0.91,5.85,6.49
11.772,-2.32,-1.23,6.07,6.61
11.783,-1.48,-1.22,5.82,6.12
11.793,-1.05,-0.55,4.85,4.99
11.803,-0.71,0.21,3.98,4.05
11.813,-0.51,1.00,3.37,3.55
11.823,-0.60,1.67,2.82,3.33
11.833,-0.39,2.61,2.40,3.57
11.843,-0.59,3.17,1.67,3.63
11.853,-0.59,3.73,-0.28,3.79
11.863,0.39,3.72,-3.56,5.17
11.873,2.30,3.16,-7.36,8.33
11.883,3.61,2.74,-8.59,9.71
11.893,2.74,2.39,-5.53,6.62
11.903,1.05,2.35,-1.94,3.22
11.913,-0.01,2.37,-0.03,2.37
11.924,-0.51,2.27,1.40,2.72
11.934,-0.70,2.29,2.33,3.35
11.944,-0.15,2.58,1.79,3.15
11.954,-0.04,2.78,0.60,2.85
11.964,-0.48,2.82,-0.83,2.98
11.974,-0.97,2.81,-2.07,3.62
11.984,-1.24,2.82,-2.63,4.05
11.994,-1.38,2.75,-2.12,3.73
12.004,-1.58,2.58,-0.92,3.17
12.014,-1.28,2.34,-0.18,2.68
12.024,-0.50,2.08,-0.18,2.14
12.034,0.17,1.67,-0.80,1.86
12.044,0.72,1.19,-1.92,2.37
12.055,1.22,0.79,-3.69,3.97
12.065,1.69,0.53,-4.86,5.18
12.075,1.63,0.51,-3.64,4.02
12.085,1.20,0.69,-2.55,2.90
12.095,1.17,0.85,-2.97,3.31
12.105,2.13,0.64,-4.48,5.01
12.115,3.41,-0.02,-5.47,6.44
12.125,4.21,-1.04,-4.58,6.31
12.135,4.54,-2.14,-2.58,5.64
12.145,4.50,-3.06,-0.26,5.44
12.155,3.95,-3.81,1.82,5.78
12.165,3.29,-4.69,3.01,6.47
12.175,2.72,-6.17,3.51,7.60
12.186,2.05,-7.79,3.50,8.78
12.195,0.66,-8.83,3.01,9.35
12.206,-0.87,-8.84,2.50,9.22
12.216,-2.34,-7.77,1.80,8.31
12.226,-3.71,-5.66,1.06,6.85
12.236,-4.89,-3.18,1.23,5.96
12.246,-5.64,-1.06,2.11,6.12
12.256,-5.54,0.46,2.63,6.15
12.266,-4.58,1.20,2.66,5.43
12.276,-3.30,1.26,2.83,4.52
12.286,-2.01,0.97,3.17,3.88
12.296,-1.13,0.67,3.48,3.72
12.306,-0.93,0.39,3.44,3.59
12.316,-1.40,0.17,3.15,3.45
12.326,-2.09,0.09,3.01,3.67
12.336,-2.75,0.27,2.99,4.07
12.347,-3.44,0.63,3.03,4.63
12.357,-4.13,1.10,3.15,5.31
12.367,-4.59,1.62,3.33,5.90
12.377,-4.83,2.14,3.47,6.32
12.387,-4.92,2.56,3.47,6.54
12.397,-4.66,3.08,3.32,6.50
12.407,-4.44,3.26,3.10,6.32
12.417,-3.68,3.72,3.01,6.04
12.427,-2.77,3.95,2.90,5.63
12.437,-1.59,4.03,2.47,4.99
12.447,-0.18,3.91,1.41,4.16
12.457,1.27,3.32,-0.26,3.57
12.467,2.94,2.24,-2.73,4.59
12.477,4.52,0.99,-5.76,7.38
12.488,5.37,-0.18,-7.96,9.60
12.498,5.42,-0.96,-8.78,10.36
12.508,4.77,-1.07,-8.47,9.78
12.518,3.43,-0.35,-7.64,8.39
12.528,2.15,0.79,-7.44,7.79
12.538,1.51,1.11,-6.94,7.19
12.548,1.12,0.09,-5.49,5.61
12.558,0.73,-1.92,-4.60,5.04
12.568,0.25,-3.45,-0.93,3.58
12.578,-0.51,-4.23,2.47,4.92
12.588,-1.46,-4.90,3.18,6.02
12.598,-1.39,-5.53,2.77,6.34
12.608,-0.28,-5.50,2.92,6.23
12.618,0.40,-5.02,3.29,6.01
12.629,0.36,-3.87,3.61,5.30
12.639,0.12,-2.17,4.31,4.82
12.649,-0.17,-1.16,5.11,5.25
12.659,-0.02,-1.75,5.53,5.80
12.669,1.32,-3.88,5.43,6.80
12.679,3.03,-6.28,4.72,8.42
12.689,4.40,-7.39,3.23,9.19
12.699,5.01,-7.31,1.14,8.93
12.709,5.32,-5.18,-3.15,8.06
12.719,2.87,-2.14,-10.08,10.69
12.729,-0.03,-0.69,-10.46,10.49
12.739,-0.56,0.05,-2.81,2.86
12.749,-0.76,0.02,1.73,1.89
12.759,-1.40,0.44,2.31,2.74
12.770,-2.15,1.17,2.72,3.66
12.780,-2.58,1.45,2.87,4.12
12.790,-2.76,1.58,2.70,4.17
12.800,-2.56,1.75,2.30,3.86
12.810,-1.98,1.98,1.76,3.31
12.820,-1.39,2.23,1.34,2.95
12.830,-1.01,2.60,0.91,2.94
12.840,-0.84,3.23,-0.06,3.34
12.850,-0.48,3.78,-2.28,4.44
12.860,0.27,3.95,-5.70,6.94
12.870,0.79,3.79,-8.45,9.30
12.880,0.72,3.52,-7.44,8.26
12.890,0.25,3.15,-3.65,4.83
12.900,-0.31,2.76,-0.68,2.86
12.910,-0.58,2.64,0.52,2.75
12.920,-0.45,2.95,1.19,3.21
12.931,0.24,3.36,1.37,3.64
12.941,0.78,3.49,1.16,3.76
12.951,0.85,3.54,0.74,3.71
12.961,0.90,3.87,-0.44,4.00
12.971,1.55,4.38,-2.88,5.47
12.981,2.85,4.46,-5.57,7.68
12.991,3.84,3.91,-6.91,8.82
13.001,4.02,2.95,-6.42,8.13
13.011,3.60,1.76,-3.96,5.63
13.021,3.49,0.42,-3.26,4.80
13.031,3.80,-1.35,-4.82,6.28
13.041,3.80,-3.40,-5.50,7.50
13.051,3.23,-4.76,-3.53,6.75
13.061,2.35,-5.01,-0.10,5.54
13.072,1.70,-4.95,2.80,5.94
13.082,1.80,-5.77,4.41,7.48
13.092,2.99,-7.37,4.49,9.14
13.102,3.86,-9.64,3.92,11.10
13.112,2.97,-10.82,3.06,11.63
13.122,0.38,-10.11,2.12,10.34
13.132,-2.44,-8.46,1.35,8.90
13.142,-4.61,-5.71,0.97,7.40
13.152,-6.26,-2.92,1.62,7.09
13.162,-7.18,-0.83,2.85,7.77
13.172,-7.34,0.48,3.47,8.14
13.182,-6.25,1.21,3.39,7.21
13.193,-4.00,0.92,3.18,5.19
13.203,-2.03,-0.12,3.28,3.86
13.213,-0.84,-1.06,3.79,4.03
13.223,-0.17,-1.34,3.41,3.66
13.233,-0.63,-0.74,1.48,1.77
13.243,-1.89,-0.70,1.17,2.33
13.253,-2.94,-0.14,1.58,3.34
13.263,-3.74,0.46,2.21,4.37
13.273,-4.40,0.86,2.76,5.26
13.283,-5.07,1.13,3.14,6.07
13.293,-5.47,1.39,3.42,6.60
13.303,-5.54,1.77,3.56,6.83
13.313,-5.43,1.86,3.68,6.82
13.323,-4.84,2.30,3.79,6.57
13.333,-4.12,2.86,3.69,6.22
13.344,-3.57,3.22,3.29,5.82
13.354,-2.50,3.77,2.58,5.21
13.364,-1.24,4.00,1.35,4.40
13.374,0.32,4.17,-0.42,4.20
13.384,2.31,3.86,-2.53,5.16
13.394,4.52,3.20,-4.50,7.13
13.404,6.27,2.61,-6.18,9.18
13.414,7.32,2.36,-8.53,11.48
13.424,8.12,2.22,-13.73,16.11
13.434,9.51,1.36,-16.42,19.03
13.444,10.16,-0.77,-8.34,13.17
13.454,6.40,-2.89,0.13,7.02
13.464,1.41,-3.75,2.79,4.88
13.474,-1.68,-4.75,2.42,5.59
13.484,-4.42,-6.49,-0.23,7.85
13.495,-3.91,-6.91,0.20,7.94
13.505,-1.05,-6.24,2.80,6.92
13.515,0.56,-5.69,3.55,6.73
13.525,0.69,-4.96,3.54,6.13
13.535,0.24,-3.81,3.45,5.14
13.545,-0.47,-2.59,3.59,4.46
13.555,-0.90,-2.13,4.10,4.70
13.565,-0.91,-3.09,4.40,5.45
13.575,-0.19,-4.97,4.48,6.70
13.585,0.68,-6.92,4.37,8.21
13.595,1.34,-8.28,3.98,9.28
13.605,2.32,-7.63,2.91,8.49
13.616,2.73,-5.52,1.52,6.34
13.625,1.42,-3.08,-0.48,3.43
13.636,-0.82,-0.62,-5.19,5.29
13.646,-3.06,0.98,-11.67,12.10
13.656,-3.24,0.85,-10.52,11.04
13.666,-1.09,0.56,-4.12,4.30
13.676,0.13,0.36,-0.46,0.60
13.686,-0.43,0.30,1.13,1.24
13.696,-1.09,0.44,2.27,2.55
13.706,-0.69,2.61,3.09,4.11
13.716,-1.29,4.59,3.20,5.75
13.726,-2.16,4.64,1.88,5.45
13.736,-2.14,4.82,2.15,5.70
13.746,-2.07,4.57,0.89,5.10
13.756,-2.13,4.26,-0.71,4.81
13.766,-1.93,3.87,-1.94,4.74
13.777,-1.31,3.88,-2.67,4.89
13.787,-0.67,3.90,-2.61,4.75
13.797,0.17,3.86,-1.59,4.18
13.807,0.70,4.08,-0.05,4.14
13.817,0.77,4.69,0.88,4.84
13.827,0.80,5.41,1.33,5.63
13.837,0.82,5.92,0.88,6.05
13.847,1.09,6.17,-0.93,6.34
13.857,1.90,5.48,-3.77,6.92
13.867,2.63,4.07,-5.60,7.41
13.877,2.97,2.61,-4.64,6.09
13.887,3.12,1.32,-2.92,4.47
13.898,3.50,-0.12,-2.80,4.48
13.908,4.52,-1.62,-4.15,6.35
13.918,5.46,-3.14,-5.17,8.15
13.927,5.74,-4.85,-3.59,8.33
13.938,6.09,-5.78,-0.81,8.44
13.948,6.13,-6.59,1.18,9.07
13.958,5.85,-7.95,1.98,10.07
13.968,5.65,-9.71,1.59,11.34
13.978,4.88,-11.45,0.77,12.47
13.988,2.44,-12.50,0.96,12.77
13.998,-0.85,-10.79,1.91,10.99
14.008,-3.84,-8.33,2.67,9.55
14.018,-6.31,-5.18,2.65,8.58
14.028,-7.81,-1.33,3.52,8.67
14.039,-7.10,-0.78,0.86,7.19
14.048,-5.14,-0.93,-0.51,5.25
14.059,-2.58,-1.64,-0.17,3.06
14.069,-1.40,-1.35,1.12,2.24
14.079,-1.10,-1.12,2.77,3.19
14.089,-1.30,-1.30,3.38,3.85
14.099,-1.06,-1.61,4.03,4.47
14.109,-0.51,-0.83,4.40,4.51
14.119,-0.88,-0.17,2.95,3.08
14.129,-2.41,-0.25,1.57,2.89
14.139,-3.74,-0.71,1.45,4.07
14.149,-5.00,-0.95,1.64,5.35
14.159,-6.00,0.98,2.29,6.49
14.169,-6.08,2.75,2.45,7.10
14.179,-5.87,3.79,2.34,7.37
14.189,-5.50,4.52,2.03,7.41
14.200,-4.66,5.09,1.99,7.18
14.210,-3.63,5.27,2.15,6.75
14.220,-2.63,5.02,2.42,6.16
14.230,-1.51,4.31,2.70,5.30
14.240,-0.68,3.45,2.92,4.57
14.250,-0.04,2.82,3.02,4.13
14.260,0.30,2.31,3.16,3.93
14.270,0.34,2.25,3.21,3.94
14.280,0.12,2.68,3.27,4.23
14.290,-0.09,3.27,3.04,4.46
14.300,-0.17,3.51,2.18,4.13
14.310,0.04,3.02,0.99,3.18
14.321,0.92,1.49,-0.48,1.81
14.330,1.79,0.48,-2.27,2.93
14.341,2.82,-0.29,-6.37,6.97
14.350,3.22,-0.23,-13.57,13.95
14.361,2.40,0.24,-13.92,14.12
14.371,1.32,0.49,-8.82,8.94
14.381,0.35,0.43,-3.91,3.95
14.391,-0.54,0.38,-0.56,0.87
14.401,-0.81,-0.37,0.67,1.11
14.411,-0.94,-1.91,1.40,2.55
14.421,-0.50,-3.96,2.01,4.47
14.431,0.31,-5.68,2.31,6.14
14.441,0.60,-6.63,2.45,7.10
14.451,0.17,-7.44,2.36,7.81
14.461,-0.38,-8.17,2.53,8.56
14.471,-0.72,-8.22,2.88,8.74
14.482,-0.38,-6.90,3.17,7.61
14.492,-0.20,-4.41,3.32,5.52
14.502,-0.24,-2.05,3.62,4.17
14.512,0.10,-1.59,3.69,4.01
14.522,0.91,-3.56,3.56,5.12
14.532,2.26,-5.67,3.29,6.93
14.542,4.72,-7.09,-0.35,8.53
14.552,7.78,-7.02,-13.02,16.71
14.562,5.72,-4.13,-18.50,19.80
14.572,2.17,-1.32,-7.60,8.01
14.582,0.58,-0.98,2.17,2.45
14.592,-0.22,-2.48,5.73,6.24
14.602,-0.90,-3.10,6.30,7.08
14.612,-1.07,-1.79,6.16,6.50
14.623,-1.40,-0.62,5.82,6.02
14.633,-1.77,-0.59,4.86,5.20
14.643,-1.92,-0.29,3.93,4.38
14.653,-2.15,-0.17,3.22,3.88
14.663,-2.51,-0.13,2.66,3.66
14.673,-2.87,-0.11,2.28,3.66
14.683,-3.40,-0.37,1.88,3.90
14.693,-3.56,-0.47,1.52,3.90
14.703,-3.29,-0.50,1.18,3.54
14.713,-2.60,-0.67,1.20,2.94
14.723,-1.74,-0.71,1.15,2.20
14.733,-1.17,-0.26,1.24,1.72
14.743,-0.86,0.17,1.28,1.55
14.753,-0.83,0.12,1.24,1.50
14.764,-0.73,-0.42,0.83,1.18
14.774,-0.79,-1.01,0.11,1.29
14.784,-0.89,-1.66,-0.74,2.03
14.794,-0.24,-1.67,-2.24,2.80
14.804,1.45,-0.73,-11.13,11.25
14.814,2.24,-1.28,-11.28,11.58
14.824,1.53,-2.38,-5.41,6.10
14.834,0.96,-2.33,-1.98,3.21
14.844,0.73,-1.97,-0.60,2.18
14.854,0.68,-1.62,-0.60,1.86
14.864,0.82,-0.79,-0.48,1.23
14.874,1.04,0.09,0.09,1.05
14.884,1.20,0.28,0.38,1.29
14.894,1.44,0.08,0.24,1.47
14.904,1.62,0.14,0.47,1.69
14.914,1.68,-0.15,1.25,2.10
14.925,1.37,-0.72,1.79,2.36
14.935,0.91,-1.87,1.89,2.81
14.945,0.40,-2.99,1.73,3.47
14.955,-0.02,-3.74,1.29,3.96
14.965,-0.24,-4.06,1.03,4.19
14.975,-0.35,-3.68,1.14,3.87
14.985,-0.37,-2.57,1.55,3.03
14.995,-0.40,-1.60,2.06,2.64
15.005,-0.62,-0.63,2.31,2.47
15.015,-0.80,0.21,2.48,2.61
15.025,-0.90,0.80,2.46,2.74
15.035,-1.02,1.06,2.10,2.57
15.045,-1.34,1.03,1.36,2.17
15.055,-1.67,1.04,0.55,2.04
15.066,-1.90,1.23,-0.24,2.28
15.076,-2.05,1.47,-0.90,2.68
15.086,-2.37,1.60,-1.26,3.12
15.096,-2.78,1.47,-1.53,3.50
15.106,-2.79,1.08,-2.14,3.67
15.116,-2.71,0.14,-2.09,3.43
15.126,-2.30,-0.53,-1.37,2.73
15.136,-1.59,-0.34,-0.25,1.65
15.146,-0.53,0.40,0.29,0.72
15.156,0.09,0.55,0.39,0.68
15.166,0.40,0.11,0.38,0.57
15.176,0.88,-0.23,0.66,1.12
15.187,0.73,-0.86,0.34,1.18
15.196,0.01,-1.38,0.12,1.39
15.207,-0.69,-1.37,0.39,1.59
15.217,-1.25,-1.01,0.44,1.66
15.227,-1.25,-0.38,0.62,1.44
15.237,-1.12,0.50,1.04,1.61
15.247,-1.47,1.26,0.72,2.07
15.257,-0.91,1.83,0.31,2.07
15.267,-0.38,2.24,-0.07,2.27
15.277,-0.25,2.00,-1.12,2.31
15.287,-0.27,1.31,-2.24,2.61
15.297,0.05,0.95,-2.63,2.80
15.307,0.56,1.37,-3.02,3.36
15.317,1.12,1.43,-2.23,2.87
15.327,1.13,0.91,-0.79,1.65
15.337,0.73,-0.24,0.64,1.00
15.348,0.37,0.22,1.21,1.28
15.358,-0.48,1.78,1.33,2.27
15.368,-1.31,2.56,0.97,3.03
15.378,-1.95,2.20,0.41,2.96
15.388,-2.14,1.61,-0.20,2.68
15.398,-2.10,1.38,-1.16,2.77
15.408,-1.99,1.13,-2.13,3.13
15.418,-1.92,0.79,-2.32,3.11
15.428,-1.93,0.02,-1.78,2.62
15.439,-3.32,-0.98,-0.86,3.57
15.448,-6.12,-1.77,-0.30,6.38
15.458,-6.56,-1.93,-0.84,6.89
15.468,-5.45,-0.87,-1.84,5.82
15.478,-4.59,-0.35,-1.04,4.71
15.489,-3.74,0.54,0.69,3.84
15.499,-2.23,0.28,2.72,3.53
15.509,-0.40,-0.53,4.41,4.46
15.519,0.83,-0.05,4.53,4.60
15.529,1.94,-0.87,3.88,4.43
15.539,6.38,-4.81,3.80,8.85
15.549,7.43,-5.76,0.43,9.41
15.559,6.50,-4.70,-1.56,8.17
15.569,5.12,-3.40,-2.72,6.72
15.579,3.59,-3.06,-3.45,5.84
15.589,3.14,-2.67,-4.11,5.82
15.599,3.36,-2.16,-6.22,7.39
15.609,4.39,-1.64,-6.54,8.05
15.619,4.54,-2.38,-7.08,8.74
15.630,5.95,-1.54,-4.30,7.50
15.640,7.46,-0.24,-0.41,7.48
15.650,8.72,0.24,3.03,9.24
15.660,9.25,0.89,5.75,10.92
15.670,9.36,1.86,7.81,12.33
15.680,8.41,1.07,8.05,11.69
15.690,6.47,-0.61,7.25,9.74
15.700,4.95,-2.05,7.46,9.18
15.710,4.21,-2.17,8.46,9.70
15.720,3.68,-1.04,9.19,9.95
15.730,2.87,-0.07,9.18,9.62
15.740,1.69,0.30,8.22,8.40
15.750,0.25,0.27,6.88,6.89
15.760,-1.16,0.18,5.72,5.84
15.771,-2.24,-0.13,4.87,5.36
15.781,-2.76,-0.46,4.02,4.90
15.791,-2.55,-0.09,3.08,4.00
15.801,-1.65,0.83,2.54,3.15
15.811,-0.82,1.49,2.29,2.85
15.821,-0.58,1.47,1.93,2.49
15.831,-1.00,1.07,1.44,2.06
15.841,-1.78,0.44,0.83,2.02
15.851,-2.68,-0.26,0.08,2.69
15.861,-3.21,-1.03,-0.44,3.40
15.871,-3.12,-1.59,-0.63,3.56
15.881,-2.52,-1.66,-0.28,3.03
15.891,-2.04,-1.40,0.61,2.55
15.901,-2.19,-1.32,1.15,2.80
15.911,-2.60,-1.91,1.46,3.54
15.921,-3.05,-2.66,1.65,4.37
15.932,-3.50,-3.29,1.37,5.00
15.942,-3.99,-3.73,0.84,5.53
15.952,-4.25,-3.88,0.54,5.78
15.962,-4.09,-3.66,0.45,5.50
15.972,-3.52,-2.96,0.21,4.60
15.982,-2.83,-2.24,-0.36,3.63
15.992,-2.33,-1.98,-1.29,3.32
16.002,-2.09,-2.11,-2.36,3.79
16.012,-2.07,-2.58,-3.31,4.68
16.023,-2.20,-2.85,-3.91,5.32
16.032,-2.29,-2.72,-4.09,5.42
16.042,-2.11,-2.54,-3.77,5.01
16.052,-1.09,-2.75,-2.25,3.72
16.063,0.74,-3.10,0.20,3.19
16.073,3.40,-3.26,4.18,6.30
16.083,3.05,-3.16,1.16,4.54
16.093,1.61,-2.93,-1.26,3.58
16.103,0.46,-3.08,-2.06,3.74
16.113,-0.45,-3.00,-2.17,3.73
16.123,-1.44,-3.04,-1.51,3.68
16.133,-1.75,-3.26,-1.45,3.98
16.143,-1.25,-3.54,-1.69,4.11
16.153,-0.36,-3.80,-1.86,4.25
16.163,0.40,-3.77,-1.41,4.05
16.173,0.84,-3.42,-0.38,3.54
16.184,0.30,-3.26,0.17,3.28
16.193,-0.07,-2.93,-0.51,2.97
16.204,0.11,-2.71,-1.45,3.08
16.214,0.50,-2.34,-2.05,3.15
16.224,2.36,-1.84,-1.56,3.38
16.234,2.64,-1.69,-0.49,3.17
16.244,2.34,-2.03,-0.70,3.18
16.254,1.52,-2.38,-1.13,3.04
16.264,0.91,-2.41,-1.21,2.85
16.274,0.91,-2.33,-1.25,2.80
16.284,0.88,-1.96,-1.21,2.47
16.294,0.56,-1.27,-0.94,1.68
16.304,0.33,-0.50,-0.62,0.86
16.314,0.29,-0.21,-0.06,0.36
16.324,0.35,-0.68,0.44,0.89
16.335,0.09,-1.23,0.43,1.31
16.344,0.18,-1.16,0.35,1.23
16.355,0.52,-0.97,0.09,1.11
16.365,0.92,-0.92,-0.21,1.31
16.375,1.23,-0.73,-0.28,1.46
16.385,1.34,-0.48,-0.36,1.47
16.395,1.22,-0.57,-0.07,1.34
16.405,0.86,-0.90,0.46,1.33
16.415,-0.09,-1.15,0.17,1.17
16.425,-0.30,-0.95,0.38,1.07
16.435,0.11,-0.60,0.75,0.97
16.445,0.30,-0.42,0.59,0.78
16.455,0.39,-0.30,0.05,0.50
16.465,0.31,-0.03,-0.17,0.36
16.475,0.60,-0.01,-0.18,0.62
16.485,0.93,-0.19,0.11,0.95
16.496,0.80,-0.45,0.15,0.93
16.506,0.53,-0.50,-0.08,0.74
16.516,0.58,-0.43,-0.25,0.76
16.526,0.62,-0.31,-0.27,0.74
16.536,0.55,-0.32,-0.43,0.77
16.546,0.53,-0.25,-0.57,0.82
16.556,0.66,-0.09,-0.57,0.87
16.566,0.73,-0.14,-0.65,0.99
16.576,0.79,-0.34,-0.55,1.02
16.586,0.70,-0.64,-0.29,0.99
16.596,0.58,-0.82,0.06,1.00
16.606,0.30,-0.88,0.34,0.99
16.617,0.09,-0.81,0.48,0.94
16.627,0.09,-0.64,0.40,0.76
16.637,0.17,-0.53,0.17,0.59
16.647,0.36,-0.53,0.04,0.65
16.657,0.66,-0.57,-0.11,0.88
16.667,0.55,-0.51,-0.31,0.82
16.677,0.61,-0.52,-0.20,0.83
16.687,0.61,-0.58,-0.11,0.84
16.697,0.61,-0.58,-0.15,0.85
16.707,0.55,-0.49,-0.13,0.75
16.717,0.53,-0.45,-0.16,0.71
16.727,0.71,-0.41,-0.12,0.83
16.737,0.84,-0.15,-0.49,0.98
16.747,0.40,-0.14,-0.90,1.00
16.757,0.23,-0.26,-0.47,0.58
16.767,0.06,0.09,-0.65,0.66
16.778,0.18,0.24,-0.76,0.81
16.788,0.36,0.18,-0.66,0.77
16.798,0.50,-0.03,-0.34,0.61
16.808,0.39,-0.35,0.12,0.54
16.818,0.51,-0.40,0.52,0.83
