time,ax,ay,az,atotal
0.000,1.07,0.01,0.03,1.07
0.010,1.21,-0.24,0.24,1.26
0.020,1.33,-0.48,0.47,1.49
0.030,1.25,-0.67,0.65,1.56
0.040,1.20,-0.72,0.66,1.55
0.050,1.19,-0.56,0.42,1.38
0.060,1.29,-0.39,-0.13,1.35
0.071,1.17,-0.75,-0.90,1.66
0.080,0.92,-0.54,-1.39,1.75
0.091,1.58,-0.08,-1.24,2.01
0.101,1.42,0.42,-0.58,1.59
0.111,0.77,0.52,-0.15,0.95
0.121,1.09,0.31,0.01,1.13
0.131,1.20,-0.34,-0.71,1.44
0.141,1.56,-0.09,-1.51,2.18
0.151,0.67,-0.56,-1.78,1.98
0.161,0.54,-0.51,-2.10,2.23
0.171,0.99,-0.06,-1.93,2.17
0.181,1.31,0.67,-1.21,1.90
0.191,1.61,1.23,-0.45,2.07
0.201,1.87,1.36,0.04,2.31
0.211,2.07,1.17,0.31,2.40
0.222,2.13,0.97,0.61,2.42
0.232,2.06,0.85,1.01,2.45
0.242,1.80,0.93,1.54,2.54
0.252,1.95,0.88,1.62,2.68
0.262,2.04,0.80,1.30,2.54
0.272,1.86,0.78,0.99,2.24
0.282,1.47,0.49,0.78,1.74
0.292,1.52,0.29,0.16,1.55
0.302,1.37,0.26,-0.38,1.45
0.312,1.17,0.35,-0.64,1.38
0.322,1.17,0.46,-0.68,1.43
0.332,1.08,0.40,-0.34,1.20
0.343,1.16,-0.01,-0.36,1.22
0.353,1.22,-0.66,-0.50,1.47
0.363,0.82,-1.15,-1.04,1.76
0.373,-0.18,-1.25,-1.79,2.19
0.383,-1.44,-0.67,-3.10,3.49
0.393,-2.26,0.69,-4.00,4.65
0.403,-2.47,1.15,-2.74,3.86
0.413,-1.46,0.02,-1.32,1.97
0.423,-1.15,-0.64,-0.86,1.58
0.433,-1.12,-0.68,-0.11,1.32
0.443,-0.84,0.01,0.18,0.86
0.453,-0.24,1.12,-0.18,1.16
0.463,0.16,1.31,0.02,1.32
0.474,0.71,0.67,-0.72,1.21
0.484,2.00,-0.12,-1.78,2.68
0.493,2.35,-0.24,-2.20,3.23
0.504,2.31,-0.10,-2.30,3.26
0.514,2.63,-0.42,-1.77,3.20
0.524,2.91,-0.97,-1.05,3.24
0.534,2.85,-1.49,-0.62,3.27
0.544,2.46,-1.85,-0.38,3.10
0.554,2.19,-2.44,-0.32,3.29
0.564,1.88,-2.87,-0.58,3.48
0.574,1.53,-3.10,-0.98,3.60
0.584,1.38,-3.23,-1.61,3.86
0.594,1.33,-3.20,-2.38,4.20
0.604,1.29,-3.06,-3.22,4.63
0.614,0.89,-3.02,-4.19,5.24
0.624,0.41,-2.96,-4.70,5.57
0.635,0.21,-2.97,-4.65,5.52
0.644,-0.38,-3.33,-4.51,5.62
0.655,-1.27,-3.64,-4.22,5.72
0.665,-2.33,-3.58,-3.71,5.66
0.675,-2.84,-3.77,-3.29,5.75
0.685,-3.03,-3.91,-3.02,5.79
0.695,-3.19,-3.78,-2.83,5.70
0.705,-3.12,-3.76,-2.65,5.56
0.715,-2.96,-3.97,-2.15,5.40
0.725,-2.92,-4.17,-1.32,5.26
0.735,-3.04,-4.32,-0.53,5.31
0.745,-3.17,-4.43,0.03,5.45
0.755,-3.35,-4.30,0.17,5.45
0.765,-3.28,-3.93,-0.11,5.12
0.775,-2.46,-3.47,-0.28,4.26
0.786,-1.49,-3.05,0.06,3.39
0.796,-0.71,-2.93,1.26,3.27
0.806,-0.41,-2.96,2.97,4.21
0.816,-0.54,-3.04,4.76,5.67
0.826,-0.52,-3.14,6.43,7.17
0.836,0.07,-2.78,7.79,8.27
0.846,1.19,-2.04,8.28,8.61
0.856,2.30,-1.25,8.00,8.42
0.866,3.15,-0.67,7.58,8.24
0.876,3.52,-0.37,7.31,8.12
0.886,3.42,-0.21,7.27,8.04
0.896,3.31,-0.11,7.28,8.00
0.906,3.22,0.06,7.13,7.82
0.917,3.25,0.32,6.71,7.46
0.927,3.54,0.58,5.94,6.94
0.937,4.03,0.65,4.90,6.37
0.947,4.55,0.67,4.08,6.15
0.957,5.34,0.78,3.87,6.64
0.967,7.00,1.18,4.48,8.39
0.977,9.09,1.92,5.21,10.65
0.987,10.61,2.79,5.40,12.22
0.997,11.22,3.43,4.36,12.51
1.008,11.24,3.69,2.03,12.00
1.017,11.47,4.02,-0.24,12.15
1.027,11.73,4.59,-1.77,12.72
1.037,11.50,5.21,-2.74,12.92
1.047,9.74,5.51,-3.41,11.70
1.058,5.73,4.86,-6.86,10.18
1.068,0.50,4.06,-12.99,13.62
1.078,-2.47,3.41,-17.28,17.79
1.088,1.21,3.39,-11.11,11.68
1.098,7.28,4.81,-2.01,8.95
1.108,7.43,3.54,1.68,8.40
1.118,1.71,1.50,1.00,2.49
1.128,-2.73,1.46,2.43,3.94
1.138,-6.26,0.47,5.84,8.58
1.148,-8.96,-0.90,3.81,9.77
1.158,-9.10,-0.52,3.10,9.63
1.168,-7.82,-0.75,2.36,8.21
1.178,-5.86,-1.07,0.61,5.99
1.188,-4.95,-0.96,-0.17,5.04
1.198,-5.29,-2.16,0.44,5.73
1.209,-6.02,-3.09,0.83,6.82
1.219,-6.45,-4.09,1.51,7.78
1.229,-6.58,-5.08,2.37,8.64
1.239,-6.11,-5.24,1.45,8.18
1.249,-6.08,-5.78,1.40,8.50
1.259,-5.19,-5.62,1.55,7.81
1.269,-4.61,-4.68,0.46,6.58
1.279,-4.14,-3.70,-1.27,5.70
1.289,-2.40,-1.99,-2.30,3.87
1.299,1.47,-1.23,-1.33,2.34
1.309,2.25,-0.06,0.03,2.25
1.319,2.28,0.77,0.77,2.53
1.329,2.95,1.62,3.35,4.75
1.339,3.83,2.96,5.84,7.59
1.349,2.08,2.83,5.95,6.91
1.360,-0.33,2.35,4.34,4.95
1.370,-3.39,1.05,1.54,3.87
1.380,-4.66,-0.01,-0.53,4.69
1.390,-4.38,-0.08,-1.66,4.68
1.400,-3.39,-0.70,-3.31,4.79
1.410,-1.84,-1.91,-3.65,4.51
1.420,-0.82,-1.38,-1.59,2.26
1.430,-0.80,-0.57,-0.45,1.07
1.440,-0.42,-0.25,-0.38,0.62
1.450,0.24,-0.19,1.03,1.08
1.460,0.46,0.03,1.38,1.46
1.470,0.09,0.21,1.37,1.38
1.480,-0.11,0.36,0.39,0.54
1.491,-0.30,0.51,-1.09,1.24
1.500,-0.26,0.53,-1.80,1.89
1.511,-0.16,0.71,-1.89,2.03
1.521,0.04,0.93,-1.80,2.02
1.531,0.27,1.12,-1.31,1.74
1.541,0.60,1.40,-0.77,1.71
1.551,1.92,0.82,-0.21,2.10
1.561,4.69,-3.01,-0.74,5.63
1.571,5.93,-7.00,-1.83,9.35
1.582,7.20,-11.41,-2.81,13.78
1.591,7.38,-14.31,-3.31,16.44
1.601,5.41,-10.58,-3.11,12.28
1.611,4.14,-6.85,-2.27,8.32
1.621,3.45,-5.81,-2.56,7.23
1.631,2.35,-3.63,-3.34,5.47
1.642,0.91,-0.99,-3.91,4.14
1.652,-0.22,0.14,-4.37,4.38
1.662,-0.76,0.31,-4.43,4.50
1.672,-0.90,0.23,-3.71,3.82
1.682,-1.39,-0.70,-2.83,3.23
1.692,-2.22,-2.00,-2.02,3.61
1.702,-2.64,-2.34,-0.96,3.66
1.712,-2.70,-2.17,0.55,3.51
1.722,-2.32,-1.89,2.22,3.72
1.732,-1.69,-2.00,3.41,4.30
1.742,-1.21,-2.28,4.22,4.95
1.752,-0.79,-2.16,4.76,5.29
1.762,-0.18,-1.23,5.05,5.20
1.773,0.49,-0.21,4.91,4.94
1.783,0.94,-0.11,4.11,4.22
1.793,1.37,-0.30,2.82,3.15
1.803,1.87,-0.35,1.55,2.45
1.813,2.16,-0.21,0.15,2.18
1.823,1.89,0.09,-1.42,2.37
1.833,1.30,0.33,-2.09,2.49
1.843,0.37,0.48,-1.51,1.62
1.853,-0.50,0.66,-0.23,0.86
1.863,-1.08,0.85,1.00,1.71
1.873,-1.32,1.12,1.80,2.49
1.883,-1.43,1.48,2.00,2.87
1.893,-1.49,1.78,2.00,3.06
1.903,-1.36,2.01,2.11,3.21
1.913,-1.70,1.73,2.30,3.34
1.924,-2.09,1.52,2.25,3.43
1.934,-2.10,1.58,1.97,3.28
1.944,-2.16,1.56,1.66,3.14
1.954,-2.16,1.49,1.32,2.94
1.964,-2.08,1.28,1.27,2.75
1.974,-1.90,1.11,1.50,2.66
1.984,-1.69,1.02,1.70,2.60
1.994,-1.52,1.04,1.78,2.56
2.004,-1.45,0.95,1.57,2.34
2.014,-1.40,0.88,1.19,2.04
2.024,-1.22,1.08,0.67,1.76
2.034,-1.04,1.24,0.18,1.63
2.044,-0.93,1.40,-0.17,1.69
2.055,-0.56,1.48,-0.59,1.69
2.065,0.20,1.21,-1.26,1.76
2.075,0.82,0.65,-1.76,2.05
2.085,1.24,0.16,-2.43,2.73
2.095,2.04,-0.24,-3.77,4.29
2.105,3.04,-0.79,-5.36,6.21
2.115,3.98,-1.42,-6.14,7.45
2.125,4.55,-1.79,-6.41,8.06
2.135,4.51,-1.82,-5.72,7.51
2.145,3.37,-1.56,-4.27,5.66
2.155,1.72,-0.56,-2.77,3.31
2.165,-0.34,0.71,-1.76,1.93
2.175,-2.27,1.52,-1.16,2.97
2.185,-3.22,1.26,-0.63,3.51
2.195,-3.56,0.02,-0.06,3.56
2.206,-3.76,-1.82,0.04,4.18
2.216,-3.78,-3.81,-0.08,5.36
2.226,-3.56,-5.23,-0.03,6.33
2.236,-3.08,-5.37,0.39,6.21
2.246,-1.96,-4.04,1.06,4.61
2.256,-1.01,-2.00,1.83,2.89
2.266,-0.91,-0.46,2.46,2.66
2.276,-1.35,0.69,2.74,3.13
2.286,-2.00,1.51,2.81,3.76
2.296,-2.38,1.77,2.82,4.09
2.306,-2.33,1.48,2.89,3.99
2.316,-1.93,0.91,3.02,3.70
2.326,-1.32,0.36,3.00,3.30
2.336,-0.49,0.08,2.79,2.84
2.347,0.40,0.04,2.41,2.45
2.357,1.17,0.24,2.02,2.35
2.367,1.81,0.46,1.53,2.42
2.377,2.34,0.55,0.78,2.52
2.387,2.68,0.40,0.01,2.71
2.397,2.77,0.18,-0.66,2.86
2.407,2.40,-0.12,-0.99,2.60
2.417,1.70,-0.32,-0.85,1.93
2.427,1.10,-0.42,-0.63,1.33
2.437,0.46,-0.50,-0.26,0.73
2.447,-0.09,-0.42,0.19,0.47
2.457,-0.49,-0.21,0.64,0.83
2.467,-0.63,0.11,0.98,1.17
2.477,-0.37,0.53,1.10,1.28
2.488,-0.18,0.95,0.97,1.37
2.498,0.01,1.24,0.78,1.47
2.508,0.24,1.37,0.64,1.54
2.518,0.45,1.22,0.46,1.38
2.528,0.61,0.89,0.32,1.12
2.538,0.88,0.51,0.30,1.06
2.548,1.02,0.26,0.17,1.07
2.558,1.09,0.12,-0.07,1.10
2.568,0.98,-0.08,-0.41,1.06
2.578,0.88,-0.22,-0.57,1.07
2.588,0.93,-0.25,-0.71,1.20
2.598,0.98,-0.18,-0.89,1.33
2.608,0.95,-0.12,-0.92,1.33
2.618,1.02,0.03,-0.91,1.36
2.628,0.85,0.10,-1.00,1.32
2.639,0.38,-0.00,-1.10,1.16
2.649,-0.11,-0.13,-1.25,1.26
2.659,-0.48,-0.27,-1.42,1.52
2.669,-0.67,-0.33,-1.57,1.74
2.679,-0.63,-0.27,-1.59,1.73
2.689,-0.46,-0.16,-1.57,1.65
2.699,-0.34,-0.02,-1.73,1.76
2.709,-0.16,0.10,-1.73,1.74
2.719,0.10,0.11,-1.53,1.54
2.729,0.40,-0.06,-1.16,1.23
2.739,0.65,-0.25,-0.80,1.06
2.749,0.85,-0.34,-0.48,1.03
2.759,0.99,-0.26,-0.24,1.05
2.769,1.11,-0.02,-0.20,1.13
2.780,1.11,0.20,-0.38,1.19
2.790,1.12,0.30,-0.58,1.30
2.800,1.07,0.31,-0.73,1.33
2.810,0.84,0.12,-1.00,1.31
2.820,0.64,-0.05,-1.22,1.38
2.830,0.55,-0.21,-1.26,1.39
2.840,0.53,-0.52,-1.32,1.52
2.850,0.33,-1.04,-1.48,1.84
2.860,0.02,-1.63,-1.64,2.31
2.870,0.02,-2.19,-1.56,2.69
2.880,0.49,-2.72,-1.29,3.05
2.890,1.24,-3.17,-1.02,3.56
2.900,2.06,-3.46,-0.84,4.11
2.910,2.79,-3.62,-0.69,4.62
2.921,3.29,-3.74,-0.61,5.01
2.931,3.58,-3.83,-0.55,5.27
2.941,3.66,-3.77,-0.75,5.31
2.951,3.49,-3.67,-1.20,5.21
2.961,2.82,-3.48,-1.87,4.85
2.971,1.67,-3.27,-2.78,4.61
2.981,0.38,-2.99,-3.64,4.73
2.991,-0.72,-2.63,-4.10,4.92
3.001,-1.56,-2.32,-4.17,5.02
3.011,-2.08,-2.25,-3.95,5.00
3.021,-2.42,-2.38,-3.53,4.90
3.031,-2.46,-2.63,-3.02,4.70
3.041,-2.02,-2.98,-2.27,4.25
3.052,-1.33,-3.24,-1.13,3.68
3.061,-0.93,-3.45,0.03,3.57
3.072,-0.79,-3.41,1.19,3.70
3.082,-0.84,-3.18,2.40,4.07
3.092,-1.14,-2.86,3.67,4.79
3.102,-1.05,-2.22,4.40,5.04
3.112,-0.90,-1.52,4.59,4.92
3.122,-0.61,-0.78,4.62,4.73
3.132,-0.55,-0.34,4.38,4.42
3.142,-0.21,0.01,3.09,3.10
3.152,1.22,0.29,0.76,1.47
3.162,2.71,-0.12,-1.58,3.14
3.172,3.24,-0.75,-2.13,3.95
3.182,3.08,-1.31,-1.01,3.50
3.192,2.50,-1.98,0.67,3.26
3.203,1.37,-2.46,1.94,3.42
3.213,0.40,-2.57,2.29,3.47
3.223,-0.29,-2.35,1.71,2.92
3.233,-0.68,-1.88,1.22,2.34
3.243,-0.67,-1.36,1.67,2.25
3.253,-0.87,-0.75,2.46,2.71
3.263,-1.28,-0.16,2.87,3.15
3.273,-1.62,0.29,2.99,3.42
3.283,-1.82,0.70,3.04,3.61
3.293,-2.14,1.08,3.01,3.84
3.303,-2.31,1.34,3.09,4.08
3.313,-2.52,1.54,3.06,4.26
3.323,-2.70,1.66,3.09,4.43
3.333,-2.95,1.73,3.18,4.67
3.344,-3.08,1.72,3.33,4.85
3.354,-3.21,1.70,3.48,5.03
3.364,-3.33,1.78,3.65,5.25
3.374,-3.27,1.87,3.83,5.37
3.384,-3.12,1.97,3.88,5.35
3.394,-2.96,1.99,3.90,5.29
3.404,-2.95,2.07,3.73,5.19
3.414,-2.91,2.17,3.43,4.99
3.424,-2.73,2.29,3.26,4.83
3.434,-2.42,2.43,3.23,4.71
3.444,-2.13,2.57,3.10,4.55
3.454,-1.82,2.70,2.96,4.40
3.464,-1.41,2.85,2.73,4.19
3.474,-0.95,2.99,2.42,3.96
3.484,-0.49,3.01,2.18,3.75
3.495,-0.12,2.92,1.93,3.50
3.505,0.04,2.64,1.70,3.14
3.515,-0.03,2.32,1.55,2.79
3.525,-0.27,2.03,1.66,2.64
3.535,-0.60,1.86,1.88,2.71
3.545,-0.69,1.75,1.83,2.63
3.555,-0.31,1.69,0.46,1.78
3.565,1.39,1.23,-4.95,5.29
3.575,4.18,-0.30,-13.37,14.01
3.585,3.37,-4.14,-13.99,14.98
3.595,-0.26,-6.86,0.99,6.93
3.605,-3.54,-7.09,10.94,13.51
3.615,-3.77,-7.60,6.99,10.99
3.625,-1.55,-7.04,-1.47,7.35
3.636,-1.43,-4.84,-3.92,6.39
3.646,-3.90,-2.21,-3.62,5.76
3.656,-4.11,0.28,0.22,4.12
3.666,-2.33,1.65,2.24,3.63
3.676,-0.26,1.15,1.34,1.79
3.686,0.92,-1.18,0.02,1.50
3.696,0.60,-3.53,0.50,3.62
3.706,-0.32,-4.56,1.13,4.71
3.716,-0.56,-4.59,0.92,4.71
3.726,-0.25,-3.79,0.86,3.90
3.736,0.20,-2.50,1.29,2.82
3.746,0.38,-1.06,1.58,1.94
3.756,0.34,0.23,1.55,1.61
3.766,0.21,1.05,1.66,1.98
3.777,-0.02,1.33,1.86,2.29
3.787,-0.21,1.14,1.97,2.28
3.797,-0.42,0.59,1.95,2.08
3.807,-0.49,-0.24,1.73,1.81
3.817,-0.36,-1.01,1.24,1.64
3.827,-0.07,-1.54,0.61,1.65
3.837,0.21,-1.76,-0.03,1.77
3.847,0.40,-1.78,-0.43,1.87
3.857,0.31,-1.57,-0.48,1.67
3.867,0.07,-1.18,-0.45,1.26
3.877,-0.23,-0.71,-0.41,0.85
3.887,-0.51,-0.18,-0.35,0.65
3.897,-0.76,0.35,-0.27,0.88
3.908,-0.87,0.69,-0.12,1.12
3.917,-0.84,0.84,0.09,1.19
3.928,-0.71,0.92,0.33,1.21
3.938,-0.58,1.04,0.48,1.28
3.948,-0.45,1.22,0.54,1.41
3.958,-0.38,1.45,0.50,1.58
3.968,-0.22,1.64,0.49,1.73
3.978,-0.02,1.87,0.42,1.91
3.988,0.29,1.98,0.31,2.03
3.998,0.63,2.00,0.22,2.10
4.008,1.02,2.01,0.06,2.25
4.018,1.30,1.84,-0.18,2.26
4.028,1.49,1.77,-0.41,2.35
4.038,1.48,1.60,-0.50,2.23
4.048,1.42,1.32,-0.65,2.04
4.058,1.33,1.01,-1.16,2.03
4.069,1.11,0.58,-1.78,2.18
4.079,0.88,0.12,-2.31,2.48
4.089,0.69,-0.19,-2.67,2.77
4.099,0.54,-0.25,-2.75,2.81
4.109,0.46,-0.19,-2.65,2.70
4.119,0.37,-0.07,-2.32,2.35
4.129,0.39,0.05,-1.83,1.88
4.139,0.41,0.10,-1.39,1.46
4.149,0.35,0.10,-1.07,1.13
4.159,0.18,-0.02,-0.89,0.91
4.169,0.04,-0.21,-0.83,0.85
4.179,0.00,-0.46,-0.82,0.94
4.190,0.08,-0.63,-0.84,1.05
4.200,0.20,-0.70,-0.86,1.13
4.210,0.32,-0.79,-0.91,1.25
4.220,0.37,-0.75,-1.02,1.31
4.230,0.41,-0.62,-1.12,1.34
4.240,0.68,-0.50,-1.24,1.50
4.250,1.04,-0.52,-1.42,1.84
4.260,1.59,-0.57,-1.58,2.32
4.270,2.22,-0.74,-1.55,2.81
4.280,2.76,-1.11,-1.38,3.28
4.290,2.99,-1.74,-1.13,3.64
4.300,3.07,-2.47,-0.82,4.02
4.310,3.13,-3.27,-0.56,4.56
4.320,3.29,-4.18,-0.47,5.34
4.330,3.34,-4.99,-0.46,6.03
4.341,3.16,-5.41,-0.34,6.27
4.351,2.87,-6.65,-0.38,7.25
4.361,1.85,-6.79,-0.42,7.05
4.371,0.52,-6.34,-0.57,6.38
4.381,-0.90,-5.63,-1.09,5.81
4.391,-2.77,-4.77,-2.76,6.17
4.401,-5.10,-3.71,-7.45,9.76
4.411,-6.53,-2.65,-15.83,17.33
4.421,-4.29,-1.70,-14.11,14.84
4.431,-2.68,-1.35,-8.19,8.72
4.441,-1.89,-1.56,-4.13,4.81
4.451,-0.31,-1.70,-0.60,1.83
4.461,0.70,-2.05,2.35,3.20
4.471,0.51,-2.30,4.55,5.12
4.482,0.31,-2.18,6.12,6.51
4.492,0.36,-1.58,7.17,7.35
4.502,-0.00,-1.12,7.58,7.66
4.512,-0.06,-0.75,7.89,7.92
4.522,0.65,-0.12,7.25,7.28
4.532,1.48,0.34,5.58,5.78
4.542,2.67,0.48,2.21,3.50
4.552,3.53,-0.02,-1.93,4.02
4.562,2.79,-0.69,-2.55,3.85
4.572,1.83,-1.12,-1.36,2.54
4.582,1.29,-1.40,-0.35,1.93
4.592,0.83,-1.69,-0.27,1.90
4.602,-0.25,-1.84,-0.11,1.86
4.612,-1.92,-1.50,1.00,2.63
4.623,-3.00,-0.83,2.17,3.79
4.633,-2.94,-0.12,2.79,4.05
4.643,-2.69,0.57,2.62,3.80
4.653,-2.54,1.27,2.10,3.54
4.663,-2.73,1.82,2.18,3.94
4.673,-3.07,2.18,2.78,4.67
4.683,-3.58,2.36,3.19,5.35
4.693,-3.86,2.48,3.29,5.64
4.703,-3.89,2.55,3.38,5.75
4.713,-3.95,2.49,3.57,5.88
4.723,-4.08,2.31,3.56,5.89
4.733,-4.17,2.06,3.67,5.92
4.743,-4.09,1.78,3.88,5.91
4.753,-3.95,1.70,4.04,5.90
4.763,-3.84,1.89,4.23,6.02
4.774,-3.77,2.26,4.41,6.23
4.784,-3.63,2.68,4.61,6.45
4.794,-3.48,3.09,4.67,6.59
4.804,-3.02,3.45,4.64,6.52
4.814,-2.30,3.65,4.26,6.06
4.824,-1.52,3.73,3.51,5.34
4.834,-0.79,3.65,2.53,4.50
4.844,-0.35,3.37,1.60,3.75
4.854,-0.25,3.11,1.05,3.29
4.864,-0.38,2.86,1.25,3.14
4.874,-0.50,2.75,1.97,3.42
4.884,-0.39,2.61,2.04,3.34
4.894,1.10,2.41,-1.77,3.18
4.904,5.52,1.49,-14.22,15.32
4.915,8.58,-2.22,-20.68,22.50
4.925,3.00,-6.92,-0.54,7.56
4.935,-2.00,-8.81,12.69,15.58
4.945,-2.30,-11.48,7.54,13.93
4.955,-1.18,-12.60,-3.42,13.11
4.965,-2.65,-10.07,-8.84,13.66
4.975,-5.40,-4.91,-5.37,9.06
4.985,-5.07,-0.69,0.48,5.14
4.995,-3.47,1.94,2.41,4.65
5.005,-1.59,2.38,2.41,3.74
5.015,0.79,-0.30,0.92,1.25
5.025,1.87,-3.67,-1.25,4.31
5.035,0.90,-5.57,-1.74,5.90
5.045,-0.62,-5.19,-0.11,5.23
5.055,-1.94,-3.24,1.23,3.97
5.065,-2.67,-1.59,1.83,3.61
5.076,-2.56,-0.38,2.22,3.41
5.086,-1.84,0.43,2.58,3.20
5.096,-0.97,0.68,2.85,3.09
5.106,-0.14,0.05,3.05,3.06
5.116,0.34,-0.94,3.20,3.35
5.126,0.63,-1.68,3.17,3.64
5.136,1.02,-2.07,3.01,3.79
5.146,1.42,-2.07,2.70,3.69
5.156,1.74,-1.65,2.22,3.27
5.166,1.89,-0.92,1.65,2.67
5.176,1.88,-0.14,1.15,2.21
5.186,1.87,0.67,0.79,2.14
5.197,1.84,1.32,0.40,2.30
5.207,1.68,1.89,-0.00,2.53
5.217,1.46,2.36,-0.39,2.80
5.227,1.19,2.73,-0.81,3.09
5.237,0.97,3.01,-1.21,3.39
5.247,0.79,3.15,-1.54,3.59
5.257,0.60,3.15,-1.73,3.65
5.267,0.42,3.04,-1.81,3.56
5.277,0.33,2.83,-1.81,3.37
5.287,0.37,2.49,-1.60,2.98
5.297,0.37,2.04,-1.53,2.58
5.307,0.33,1.58,-1.76,2.38
5.317,0.55,1.28,-1.70,2.19
5.327,0.65,1.06,-1.89,2.26
5.338,0.76,0.87,-2.18,2.46
5.348,1.06,0.75,-2.17,2.53
5.358,1.38,0.66,-1.83,2.38
5.368,1.62,0.50,-1.54,2.29
5.378,1.72,0.34,-1.28,2.17
5.388,1.70,0.21,-1.10,2.04
5.398,1.61,-0.09,-1.13,1.97
5.408,1.32,-0.38,-1.28,1.88
5.418,1.14,-0.43,-1.29,1.78
5.428,0.98,-0.34,-1.22,1.60
5.438,0.62,-0.20,-1.22,1.39
5.448,0.29,-0.17,-1.28,1.32
5.458,0.17,-0.28,-1.34,1.38
5.468,0.21,-0.28,-1.31,1.36
5.478,0.31,-0.08,-1.19,1.24
5.489,0.33,0.25,-1.14,1.22
5.499,0.26,0.52,-1.06,1.21
5.509,0.28,0.63,-0.88,1.12
5.519,0.38,0.52,-0.73,0.98
5.529,0.60,0.21,-0.63,0.89
5.539,0.90,-0.33,-0.68,1.18
5.549,1.21,-1.00,-0.78,1.75
5.559,1.37,-1.63,-0.88,2.31
5.569,1.52,-2.23,-0.94,2.86
5.579,1.60,-2.86,-1.00,3.42
5.589,1.72,-3.58,-1.06,4.12
5.599,1.97,-4.39,-1.05,4.92
5.609,2.43,-5.22,-0.83,5.82
5.619,2.79,-5.80,-0.49,6.46
5.630,3.04,-6.24,-0.05,6.94
5.640,2.56,-6.51,0.41,7.01
5.650,1.24,-6.31,0.38,6.44
5.660,-0.31,-5.60,-0.29,5.62
5.670,-1.94,-4.65,-1.61,5.29
5.680,-3.38,-3.53,-3.96,6.30
5.690,-4.65,-2.51,-8.51,10.02
5.700,-4.41,-1.70,-11.69,12.61
5.710,-3.29,-1.28,-8.41,9.12
5.720,-3.10,-1.22,-4.27,5.41
5.730,-2.54,-1.33,-0.84,2.99
5.740,-1.80,-1.72,1.99,3.19
5.750,-1.28,-2.14,4.41,5.07
5.761,-0.70,-2.17,5.75,6.19
5.771,-0.31,-1.63,6.21,6.42
5.781,-0.18,-0.94,6.55,6.62
5.791,-0.17,-0.39,6.74,6.75
5.801,-0.01,0.12,6.74,6.75
5.811,0.25,0.84,6.53,6.59
5.821,0.44,1.44,6.16,6.34
5.831,0.72,1.98,5.07,5.49
5.841,1.69,2.33,2.16,3.60
5.851,3.05,2.30,-1.83,4.24
5.861,3.07,1.82,-3.14,4.75
5.871,2.30,1.16,-2.72,3.75
5.881,1.08,0.49,-1.79,2.15
5.891,-0.21,0.01,-0.81,0.84
5.901,-1.08,-0.24,0.27,1.14
5.912,-1.53,-0.27,1.21,1.97
5.922,-1.79,-0.10,1.42,2.29
5.932,-2.10,0.29,1.38,2.53
5.942,-2.17,0.81,1.57,2.79
5.952,-1.90,1.24,1.70,2.84
5.962,-1.72,1.66,1.38,2.76
5.972,-1.80,1.78,1.01,2.73
5.982,-1.78,1.55,1.13,2.61
5.992,-1.52,1.33,1.37,2.44
6.002,-1.14,1.12,1.36,2.10
6.012,-0.80,0.81,1.08,1.57
6.022,-0.58,0.44,0.81,1.09
6.032,-0.49,0.03,0.67,0.84
6.042,-0.58,-0.28,0.61,0.89
6.052,-0.82,-0.51,0.61,1.14
6.063,-1.04,-0.66,0.68,1.41
6.073,-1.23,-0.70,0.80,1.63
6.083,-1.49,-0.52,1.09,1.92
6.093,-1.66,-0.23,1.52,2.27
6.103,-1.75,0.18,1.69,2.44
6.113,-1.75,0.59,1.67,2.49
6.123,-1.71,0.90,1.66,2.55
6.133,-1.68,1.15,1.68,2.64
6.143,-1.71,1.35,1.61,2.70
6.153,-1.67,1.51,1.56,2.74
6.163,-1.57,1.67,1.59,2.79
6.173,-1.47,1.82,1.68,2.88
6.183,-1.38,2.00,1.95,3.12
6.194,-1.39,2.25,2.38,3.56
6.204,-1.47,2.56,2.87,4.12
6.214,-1.59,2.90,3.23,4.62
6.224,-1.71,3.17,3.26,4.86
6.234,-1.56,3.42,3.00,4.81
6.244,-1.18,3.60,2.56,4.57
6.254,-0.77,3.63,2.11,4.27
6.264,-0.53,3.35,1.80,3.84
6.274,-0.60,2.82,1.63,3.31
6.284,-0.78,2.24,1.31,2.71
6.294,-0.88,1.71,1.17,2.25
6.304,-0.94,1.32,0.85,1.83
6.314,-0.38,0.86,-2.47,2.64
6.324,2.41,0.00,-10.61,10.88
6.334,5.86,-1.99,-15.13,16.35
6.344,5.01,-5.62,-7.49,10.62
6.355,0.88,-7.36,7.24,10.36
6.365,-1.70,-8.13,10.70,13.54
6.375,-1.01,-8.70,5.20,10.18
6.385,-0.20,-7.99,-2.83,8.48
6.395,-2.60,-4.69,-7.60,9.30
6.405,-3.84,-1.04,-3.12,5.06
6.415,-2.92,1.17,2.50,4.02
6.425,-1.17,2.36,3.13,4.09
6.435,1.47,1.42,0.88,2.22
6.445,2.90,-1.74,-1.54,3.72
6.455,2.16,-4.35,-1.73,5.16
6.465,0.06,-5.25,-0.10,5.26
6.475,-1.25,-4.10,0.71,4.35
6.486,-2.03,-2.21,0.73,3.08
6.496,-2.65,-0.76,0.73,2.85
6.506,-2.67,0.33,0.82,2.81
6.516,-2.32,1.00,1.18,2.79
6.526,-1.76,1.18,1.48,2.58
6.536,-1.24,0.77,1.62,2.18
6.546,-1.07,-0.13,1.65,1.97
6.556,-1.12,-0.99,1.40,2.05
6.566,-1.14,-1.54,1.10,2.21
6.576,-1.05,-1.71,0.83,2.17
6.586,-0.88,-1.46,0.65,1.83
6.596,-0.60,-1.10,0.58,1.38
6.606,-0.25,-0.83,0.48,0.99
6.616,0.14,-0.53,0.41,0.68
6.627,0.42,-0.12,0.39,0.59
6.637,0.48,0.24,0.40,0.67
6.647,0.59,0.56,0.50,0.95
6.657,0.70,0.86,0.57,1.25
6.667,0.90,1.12,0.58,1.55
6.677,1.15,1.32,0.58,1.85
6.687,1.30,1.55,0.52,2.09
6.697,1.32,1.75,0.29,2.22
6.707,1.29,1.93,0.08,2.33
6.717,1.14,1.97,-0.12,2.29
6.727,1.04,1.86,-0.34,2.16
6.737,0.92,1.63,-0.60,1.96
6.747,0.68,1.41,-0.96,1.84
6.757,0.45,1.19,-1.38,1.88
6.767,0.26,1.09,-1.77,2.09
6.778,0.10,0.99,-2.02,2.25
6.788,0.15,0.85,-2.13,2.30
6.798,0.30,0.69,-2.12,2.25
6.808,0.35,0.52,-1.94,2.04
6.818,0.40,0.47,-1.98,2.07
6.828,0.39,0.45,-1.96,2.04
6.838,0.48,0.44,-1.90,2.01
6.848,0.81,0.45,-1.57,1.83
6.858,1.16,0.35,-1.46,1.90
6.868,1.38,0.28,-1.44,2.01
6.878,1.42,0.14,-1.53,2.09
6.888,1.45,0.07,-1.54,2.12
6.898,1.24,0.17,-1.44,1.90
6.909,0.95,0.26,-1.33,1.66
6.919,0.84,0.27,-1.31,1.58
6.929,0.79,0.19,-1.22,1.46
6.939,0.91,0.02,-1.10,1.42
6.949,1.25,-0.17,-1.00,1.61
6.959,1.63,-0.29,-0.84,1.85
6.969,2.03,-0.09,-0.66,2.14
6.979,2.21,0.04,-0.52,2.27
6.989,2.25,-0.02,-0.47,2.30
6.999,2.19,-0.45,-0.53,2.30
7.009,1.91,-1.14,-0.73,2.35
7.019,1.46,-1.66,-0.91,2.39
7.029,1.06,-2.14,-1.11,2.63
7.039,0.78,-2.87,-1.33,3.25
7.050,1.00,-3.94,-1.42,4.30
7.060,1.66,-5.12,-1.32,5.54
7.070,2.17,-6.13,-1.08,6.59
7.080,2.50,-6.78,-0.73,7.26
7.090,2.23,-7.25,-0.56,7.61
7.100,1.10,-7.32,-0.74,7.44
7.110,-0.71,-6.92,-1.59,7.14
7.120,-2.65,-5.96,-3.70,7.50
7.130,-4.42,-4.90,-8.80,11.00
7.140,-4.34,-3.68,-13.49,14.64
7.150,-2.58,-2.13,-10.17,10.71
7.160,-1.64,-1.41,-5.85,6.24
7.170,-1.26,-1.23,-1.81,2.53
7.180,-1.02,-1.49,1.11,2.12
7.191,-0.57,-1.99,3.17,3.78
7.201,-0.29,-2.04,4.76,5.19
7.211,-0.47,-1.64,5.00,5.29
7.221,-0.70,-1.04,5.13,5.28
7.231,-0.42,-0.73,6.13,6.19
7.241,-0.10,-0.59,6.80,6.82
7.251,-0.07,-0.55,6.81,6.84
7.261,-0.01,-0.46,6.02,6.04
7.271,1.20,-0.62,3.12,3.40
7.281,3.69,-1.23,-1.98,4.36
7.291,4.59,-1.82,-4.43,6.63
7.301,3.31,-2.20,-4.97,6.37
7.311,0.80,-2.23,-4.27,4.88
7.322,-1.11,-1.75,-1.74,2.70
7.331,-1.97,-0.89,1.42,2.59
7.342,-2.61,0.06,3.74,4.56
7.352,-3.17,1.03,5.17,6.15
7.362,-2.76,1.50,1.71,3.58
7.372,-2.19,1.83,1.94,3.45
7.382,-1.63,2.10,2.07,3.37
7.392,-1.57,2.08,1.78,3.16
7.402,-2.04,1.89,2.14,3.50
7.412,-3.24,1.81,4.90,6.15
7.422,-3.25,1.89,3.83,5.37
7.432,-2.43,1.34,-0.01,2.78
7.442,-2.77,1.08,1.80,3.47
7.452,-2.81,1.01,3.18,4.37
7.462,-2.82,1.17,3.93,4.98
7.472,-3.00,1.53,4.46,5.59
7.483,-3.17,1.95,5.02,6.24
7.493,-3.22,2.33,4.84,6.26
7.503,-3.40,2.58,3.99,5.84
7.513,-3.60,2.81,3.60,5.82
7.523,-3.63,3.04,3.63,5.97
7.533,-3.54,3.26,3.85,6.16
7.543,-3.23,3.49,4.07,6.26
7.553,-2.69,3.66,4.20,6.18
7.563,-1.99,3.70,4.09,5.86
7.573,-1.20,3.59,3.63,5.24
7.583,-0.54,3.50,2.63,4.41
7.593,-0.05,3.30,1.61,3.67
7.603,0.18,3.02,1.18,3.25
7.613,-0.03,2.66,1.54,3.07
7.624,-0.32,2.30,2.14,3.16
7.634,-0.41,2.07,2.50,3.27
7.644,0.07,1.85,0.64,1.96
7.654,3.17,1.38,-10.78,11.32
7.664,7.92,-1.19,-25.57,26.80
7.674,5.33,-6.42,-8.74,12.08
7.684,-0.27,-8.60,14.34,16.72
7.694,-2.30,-10.88,13.50,17.49
7.704,-1.63,-12.69,4.78,13.65
7.714,-0.68,-12.31,-8.91,15.21
7.724,-3.86,-7.10,-10.09,12.92
7.734,-5.07,-1.94,-0.23,5.44
7.744,-3.90,1.22,4.11,5.80
7.754,-2.85,3.34,3.25,5.46
7.764,-1.21,3.26,1.23,3.69
7.775,0.52,-0.14,-0.54,0.76
7.785,0.32,-3.78,-0.89,3.90
7.795,-0.61,-5.48,0.18,5.51
7.805,-1.06,-5.15,1.20,5.39
7.815,-1.24,-3.37,1.44,3.87
7.825,-1.32,-1.47,1.49,2.47
7.835,-1.10,-0.03,1.62,1.96
7.845,-0.83,0.68,1.88,2.17
7.855,-0.51,0.73,2.12,2.30
7.865,-0.32,0.29,2.28,2.32
7.875,-0.13,-0.18,2.38,2.39
7.886,0.08,-0.59,2.30,2.38
7.895,0.28,-0.79,2.01,2.18
7.906,0.43,-0.71,1.60,1.80
7.916,0.53,-0.48,1.10,1.31
7.926,0.52,-0.17,0.59,0.81
7.936,0.45,0.08,0.12,0.47
7.946,0.37,0.35,-0.30,0.59
7.956,0.26,0.59,-0.72,0.96
7.966,0.17,0.86,-1.02,1.34
7.976,0.14,1.11,-1.15,1.61
7.986,0.11,1.30,-1.09,1.70
7.996,0.28,1.48,-0.90,1.76
8.006,0.41,1.68,-0.64,1.85
8.016,0.51,1.89,-0.37,1.99
8.026,0.65,2.04,-0.21,2.15
8.036,0.73,2.07,-0.19,2.21
8.047,0.96,2.01,-0.25,2.24
8.057,1.07,1.87,-0.67,2.26
8.067,0.99,1.71,-1.40,2.43
8.077,1.07,1.44,-1.84,2.57
8.087,1.42,1.06,-2.09,2.75
8.097,1.67,0.82,-2.21,2.89
8.107,1.63,0.72,-2.23,2.85
8.117,1.58,0.60,-2.14,2.73
8.127,1.62,0.48,-1.82,2.48
8.137,1.68,0.45,-1.41,2.23
8.147,1.86,0.44,-1.09,2.20
8.157,1.93,0.38,-0.98,2.19
8.167,1.81,0.33,-1.04,2.11
8.177,1.63,0.31,-1.18,2.03
8.188,1.37,0.32,-1.30,1.92
8.198,1.16,0.36,-1.33,1.80
8.208,0.59,0.43,-1.35,1.53
8.218,-0.05,0.42,-1.43,1.50
8.228,-0.52,0.16,-1.49,1.58
8.238,-0.77,-0.25,-1.49,1.70
8.248,-0.68,-0.51,-1.53,1.75
8.258,-0.35,-0.66,-1.48,1.66
8.268,0.10,-0.69,-1.46,1.62
8.278,0.27,-0.65,-1.46,1.62
8.288,0.28,-0.69,-1.36,1.55
8.298,0.41,-0.89,-1.17,1.53
8.308,0.59,-1.32,-0.91,1.71
8.318,0.80,-1.98,-0.69,2.25
8.328,1.22,-2.74,-0.59,3.06
8.339,1.98,-3.25,-0.59,3.85
8.349,2.73,-3.48,-0.80,4.50
8.359,3.68,-3.85,-0.84,5.39
8.369,4.41,-4.28,-0.62,6.18
8.379,4.65,-4.75,-0.13,6.65
8.389,4.43,-5.30,0.36,6.91
8.399,3.45,-5.86,0.49,6.82
8.409,2.21,-6.08,0.55,6.50
8.419,0.53,-5.73,0.11,5.75
8.429,-1.24,-5.04,-1.22,5.33
8.439,-3.06,-4.10,-4.40,6.75
8.449,-5.14,-3.16,-12.74,14.10
8.459,-4.45,-2.33,-16.60,17.34
8.469,-2.70,-1.96,-10.35,10.87
8.480,-1.58,-2.09,-5.40,6.00
8.490,-0.70,-2.49,-1.30,2.90
8.500,-0.62,-2.88,2.05,3.59
8.510,-0.59,-2.46,4.47,5.14
8.520,-0.27,-1.62,5.55,5.78
8.530,-0.21,-1.01,6.73,6.81
8.540,-0.21,-0.29,7.70,7.71
8.550,0.04,0.26,7.73,7.74
8.560,0.36,0.83,7.64,7.70
8.570,0.87,1.29,7.64,7.80
8.580,1.36,1.50,6.60,6.90
8.590,2.13,1.17,2.80,3.71
8.600,2.65,0.31,-3.23,4.19
8.611,2.31,-0.42,-4.85,5.38
8.621,2.32,-0.73,-3.48,4.25
8.631,2.45,-1.21,-3.15,4.17
8.641,1.69,-1.75,-1.68,2.95
8.651,-0.74,-1.61,0.84,1.96
8.661,-2.65,-0.97,3.00,4.12
8.671,-2.87,-0.27,4.25,5.13
8.681,-2.22,0.33,4.10,4.67
8.691,-1.64,0.79,2.88,3.41
8.701,-1.25,1.06,1.48,2.21
8.711,-1.33,1.18,1.06,2.07
8.721,-2.09,1.17,1.59,2.87
8.731,-2.65,1.16,2.52,3.84
8.741,-2.95,1.24,3.15,4.48
8.751,-3.21,1.48,3.54,5.01
8.761,-3.38,1.72,3.99,5.51
8.772,-3.65,1.99,4.34,6.01
8.782,-3.91,2.26,4.70,6.52
8.792,-4.06,2.47,5.05,6.94
8.802,-4.09,2.69,5.35,7.25
8.812,-4.00,2.86,5.52,7.39
8.822,-3.88,3.00,5.46,7.34
8.832,-3.68,2.97,5.25,7.06
8.842,-3.35,2.95,4.85,6.59
8.852,-2.76,3.05,4.31,5.95
8.862,-2.14,3.27,3.61,5.32
8.872,-1.79,3.44,2.68,4.72
8.882,-1.59,3.55,1.37,4.12
8.893,-1.38,3.62,0.45,3.90
8.903,-1.24,3.58,0.30,3.80
8.913,-1.13,3.44,1.20,3.81
8.923,-1.14,3.13,3.04,4.51
8.933,-1.07,2.78,3.19,4.37
8.943,0.91,2.29,-6.82,7.25
8.953,5.47,-0.33,-24.90,25.49
8.963,4.84,-4.55,-0.85,6.70
8.973,0.20,-8.07,16.10,18.01
8.983,0.42,-13.27,8.27,15.64
8.994,1.42,-18.37,-7.29,19.82
9.003,-0.13,-17.72,-11.49,21.12
9.013,-3.13,-9.88,-2.16,10.58
9.023,-4.11,-3.08,2.69,5.80
9.034,-3.16,1.50,1.92,3.99
9.044,-1.82,4.06,1.05,4.57
9.054,-0.41,4.21,-0.48,4.25
9.064,0.18,1.66,-0.76,1.83
9.074,-0.74,-1.34,0.28,1.55
9.084,-1.98,-2.62,0.96,3.42
9.094,-2.62,-2.47,1.41,3.87
9.104,-2.33,-1.85,1.76,3.45
9.114,-1.72,-1.14,2.13,2.97
9.124,-1.09,-0.53,2.57,2.84
9.134,-0.29,-0.42,2.95,2.99
9.144,0.49,-0.67,3.02,3.14
9.154,1.02,-0.93,2.85,3.16
9.164,1.48,-1.09,2.60,3.19
9.174,1.83,-1.09,2.16,3.04
9.185,2.00,-0.82,1.47,2.61
9.195,1.94,-0.26,0.61,2.05
9.205,1.66,0.39,-0.22,1.72
9.215,1.41,1.06,-0.88,1.97
9.225,1.20,1.65,-1.23,2.38
9.235,1.05,2.13,-1.34,2.72
9.245,0.97,2.48,-1.44,3.03
9.255,0.90,2.62,-1.59,3.20
9.265,0.79,2.60,-1.62,3.16
9.275,0.89,2.40,-1.40,2.91
9.285,0.95,2.12,-1.15,2.59
9.295,0.95,1.87,-0.97,2.32
9.305,1.00,1.63,-0.82,2.08
9.316,0.93,1.40,-0.83,1.88
9.326,1.13,1.17,-0.75,1.79
9.335,1.30,1.01,-0.65,1.77
9.346,1.21,0.87,-0.93,1.75
9.356,1.05,0.74,-0.94,1.60
9.366,0.99,0.76,-1.10,1.67
9.376,1.07,0.85,-1.68,2.17
9.386,1.30,0.91,-1.94,2.50
9.396,1.70,0.90,-1.77,2.61
9.406,1.93,0.82,-1.61,2.65
9.416,2.06,0.77,-1.52,2.67
9.426,1.95,0.66,-1.52,2.56
9.436,1.81,0.67,-1.42,2.39
9.446,1.63,0.78,-1.25,2.20
9.457,1.50,0.88,-1.07,2.04
9.467,1.41,0.91,-0.99,1.95
9.477,0.88,0.90,-1.11,1.68
9.487,0.26,0.91,-1.07,1.42
9.497,0.20,0.96,-0.90,1.33
9.507,0.21,0.95,-0.88,1.31
9.517,0.23,0.85,-0.91,1.27
9.527,0.19,0.66,-0.86,1.10
9.537,0.16,0.27,-0.72,0.78
9.547,0.12,-0.37,-0.55,0.67
9.557,0.24,-1.23,-0.44,1.33
9.567,0.50,-2.23,-0.35,2.31
9.577,0.82,-3.13,-0.26,3.24
9.587,1.18,-3.92,-0.33,4.11
9.597,1.56,-4.53,-0.56,4.82
9.608,1.87,-4.75,-0.79,5.16
9.618,2.05,-4.61,-1.02,5.15
9.628,2.09,-4.24,-1.27,4.89
9.638,2.14,-3.99,-1.48,4.76
9.648,2.06,-3.73,-1.79,4.63
9.658,1.84,-3.09,-2.18,4.21
9.668,1.80,-2.29,-2.43,3.80
9.678,2.07,-1.96,-2.49,3.78
9.688,2.35,-2.22,-2.34,3.99
9.698,2.32,-2.72,-1.98,4.09
9.708,1.64,-2.90,-1.66,3.72
9.718,0.55,-2.76,-1.58,3.23
9.728,-0.50,-2.55,-2.23,3.42
9.738,-1.13,-2.61,-3.92,4.84
9.748,-1.16,-2.63,-6.60,7.20
9.759,0.48,-2.21,-10.90,11.13
9.769,2.23,-1.18,-11.78,12.05
9.779,2.15,-0.19,-6.35,6.70
9.789,1.56,0.14,-0.71,1.73
9.799,2.09,0.25,2.12,2.98
9.809,2.63,0.11,3.25,4.18
9.819,2.70,-0.01,4.18,4.97
9.829,1.98,-0.13,4.99,5.37
9.839,1.22,-0.31,5.62,5.76
9.849,0.95,-0.56,5.57,5.67
9.859,0.82,-0.71,5.73,5.83
9.869,0.63,-0.66,6.43,6.49
9.879,0.60,-0.20,7.17,7.20
9.890,0.31,0.35,6.84,6.86
9.900,0.30,1.16,6.31,6.42
9.910,0.58,1.89,5.59,5.93
9.920,0.57,2.52,4.66,5.33
9.930,0.30,2.79,4.01,4.89
9.940,0.12,2.72,3.76,4.65
9.950,0.50,2.38,2.29,3.34
9.960,1.53,1.48,-0.48,2.18
9.970,2.38,0.74,-2.21,3.33
9.980,2.44,0.53,-2.22,3.34
9.990,1.94,0.58,-1.42,2.48
10.000,1.16,0.74,-0.24,1.39
10.010,0.61,1.01,1.19,1.67
10.021,0.18,1.42,2.39,2.79
10.030,0.19,1.92,3.04,3.60
10.041,0.18,2.27,3.51,4.18
10.051,-0.03,2.35,3.78,4.45
10.061,-0.35,2.15,3.93,4.49
10.071,-0.68,1.78,3.88,4.32
10.081,-1.05,1.31,3.86,4.21
10.091,-1.47,0.90,3.81,4.18
10.101,-2.05,0.65,3.68,4.26
10.111,-2.64,0.62,3.65,4.55
10.121,-3.12,0.80,3.71,4.91
10.131,-3.32,1.09,3.80,5.16
10.141,-3.48,1.39,3.89,5.41
10.151,-3.67,1.68,4.00,5.68
10.161,-3.79,1.90,4.13,5.92
10.172,-3.85,2.12,4.18,6.07
10.182,-4.03,2.35,4.06,6.18
10.192,-4.20,2.61,3.77,6.21
10.202,-4.17,2.88,3.33,6.07
10.212,-4.05,3.10,2.86,5.85
10.222,-3.84,3.12,2.46,5.53
10.232,-3.32,2.86,2.01,4.82
10.242,-2.35,2.25,1.15,3.45
10.252,-1.16,1.29,-0.25,1.75
10.262,0.07,-0.10,-2.14,2.14
10.272,1.54,-1.91,-6.05,6.53
10.282,4.63,-4.35,-16.99,18.14
10.292,9.66,-6.34,-21.95,24.80
10.302,11.26,-5.98,-9.89,16.14
10.313,9.85,-4.85,-1.47,11.07
10.323,6.71,-2.89,0.62,7.33
10.333,3.70,-1.25,0.32,3.92
10.343,1.03,-0.33,0.11,1.09
10.353,-1.29,-0.19,1.32,1.85
10.363,-2.03,-1.96,2.45,3.73
10.373,-2.11,-5.11,2.32,6.00
10.383,-2.38,-8.39,0.96,8.78
10.393,-4.22,-10.92,-3.82,12.31
10.403,-6.58,-10.97,-10.12,16.31
10.413,-3.11,-7.92,-2.73,8.93
10.423,-1.25,-3.10,4.21,5.37
10.433,-1.33,0.12,5.38,5.54
10.443,-1.36,2.80,5.72,6.51
10.453,-1.07,4.65,5.56,7.33
10.463,-0.59,5.83,5.11,7.77
10.474,0.19,6.31,5.00,8.06
10.484,1.04,6.00,5.25,8.03
10.494,1.78,4.56,5.69,7.51
10.504,2.83,2.54,6.16,7.24
10.514,4.05,0.46,6.43,7.61
10.524,5.03,-1.51,6.52,8.37
10.534,5.52,-2.77,6.44,8.92
10.544,5.26,-3.07,5.67,8.32
10.554,4.84,-2.20,4.23,6.80
10.564,4.62,-1.16,3.00,5.63
10.574,4.25,-0.26,2.21,4.79
10.584,3.47,0.71,1.73,3.94
10.594,2.60,1.54,1.43,3.34
10.604,1.83,2.08,1.12,2.99
10.615,1.16,2.30,0.70,2.67
10.625,0.59,2.39,0.35,2.49
10.635,0.21,2.42,-0.10,2.43
10.645,-0.05,2.27,-0.55,2.34
10.655,-0.25,1.95,-0.91,2.17
10.665,-0.37,1.51,-1.24,1.99
10.675,-0.54,0.96,-1.56,1.91
10.685,-0.78,0.31,-1.86,2.04
10.695,-0.93,-0.31,-2.10,2.32
10.705,-0.95,-0.79,-2.10,2.44
10.715,-0.80,-1.03,-1.91,2.31
10.725,-0.67,-0.99,-1.65,2.04
10.735,-0.60,-0.70,-1.43,1.70
10.746,-0.58,-0.16,-1.32,1.45
10.756,-0.36,0.15,-1.29,1.34
10.766,0.07,0.30,-1.29,1.32
10.776,0.64,0.33,-1.23,1.42
10.786,1.24,0.19,-1.13,1.68
10.796,1.76,-0.11,-1.02,2.04
10.806,2.20,-0.58,-0.99,2.48
10.816,2.59,-1.09,-1.13,3.03
10.826,2.97,-1.58,-1.49,3.68
10.836,3.37,-2.05,-1.94,4.40
10.846,3.69,-2.53,-2.52,5.14
10.856,3.84,-3.09,-4.45,6.64
10.866,3.44,-3.54,-10.77,11.85
10.876,2.35,-3.54,-18.70,19.18
10.886,2.12,-3.24,-15.86,16.33
10.897,3.06,-3.47,-7.83,9.09
10.907,4.02,-3.78,-1.64,5.75
10.917,4.38,-4.36,0.14,6.19
10.927,5.54,-3.54,0.21,6.58
10.937,5.89,-1.87,-0.24,6.18
10.947,4.73,-0.71,0.65,4.83
10.957,3.77,-1.22,2.22,4.54
10.967,3.38,-2.35,3.81,5.61
10.977,3.29,-2.88,5.44,6.97
10.987,3.47,-3.49,6.49,8.15
10.997,3.91,-4.24,7.64,9.58
11.007,4.71,-4.61,8.98,11.14
11.017,5.35,-5.05,10.23,12.60
11.027,5.52,-5.12,10.60,13.00
11.038,5.09,-4.28,9.44,11.54
11.047,4.78,-2.68,8.98,10.52
11.058,4.31,-1.22,7.55,8.77
11.068,4.50,-0.29,2.64,5.22
11.078,5.49,-0.06,-4.17,6.89
11.088,4.62,-0.38,-5.19,6.96
11.098,3.13,-0.86,-4.26,5.36
11.108,1.47,-1.81,-1.66,2.86
11.118,-0.10,-2.50,1.67,3.01
11.128,-0.75,-2.76,4.08,4.98
11.138,-0.48,-2.77,3.82,4.74
11.148,0.08,-2.60,2.98,3.95
11.158,0.52,-2.53,3.55,4.39
11.168,0.08,-2.63,5.00,5.65
11.178,-1.14,-2.67,6.20,6.85
11.189,-2.74,-2.49,6.19,7.21
11.199,-3.93,-2.08,5.25,6.88
11.209,-4.71,-1.71,4.10,6.47
11.219,-5.31,-1.31,3.28,6.38
11.229,-5.64,-0.69,2.99,6.42
11.239,-5.42,0.10,2.99,6.20
11.249,-5.11,0.89,3.15,6.07
11.259,-4.57,1.59,3.56,6.01
11.269,-3.82,2.08,4.00,5.91
11.279,-2.96,2.27,4.31,5.70
11.289,-2.11,2.20,4.24,5.22
11.299,-1.35,2.08,3.85,4.58
11.309,-0.79,2.07,3.45,4.11
11.319,-0.29,2.17,3.10,3.80
11.329,0.29,2.45,2.83,3.75
11.340,0.88,2.77,2.70,3.97
11.350,1.28,2.84,2.71,4.13
11.360,1.24,2.56,2.66,3.90
11.370,0.73,1.98,2.21,3.06
11.380,-0.05,1.27,1.56,2.01
11.390,-0.74,0.88,0.87,1.44
11.400,-1.16,0.86,0.23,1.46
11.410,-1.32,1.08,-0.16,1.71
11.420,-1.45,1.44,-0.09,2.05
11.430,-1.70,1.88,0.31,2.56
11.440,-2.13,2.24,0.32,3.11
11.450,-2.06,2.23,-2.61,4.00
11.460,0.56,1.09,-12.34,12.40
11.470,5.01,-2.51,-19.27,20.07
11.481,5.98,-7.99,-6.92,12.14
11.491,1.92,-10.30,12.50,16.31
11.501,-2.49,-10.43,15.78,19.08
11.511,-3.33,-9.18,7.47,12.29
11.521,-2.68,-5.37,-1.66,6.23
11.531,-2.61,-1.28,-4.66,5.49
11.541,-3.73,0.50,-1.03,3.90
11.551,-3.34,0.85,3.64,5.01
11.561,-1.55,-1.06,6.01,6.29
11.571,-0.14,-4.19,5.17,6.66
11.581,-0.13,-6.29,2.15,6.65
11.591,-0.94,-7.09,0.34,7.16
11.601,-1.83,-6.51,1.48,6.92
11.612,-2.32,-4.96,2.79,6.14
11.622,-2.22,-3.45,2.62,4.86
11.632,-1.86,-2.03,1.96,3.38
11.642,-1.35,-0.84,1.41,2.13
11.652,-0.97,-0.11,1.35,1.66
11.662,-0.65,0.21,1.79,1.91
11.672,-0.44,0.20,2.13,2.19
11.682,-0.22,0.23,2.06,2.08
11.692,0.25,0.33,1.61,1.67
11.702,0.86,0.47,1.11,1.48
11.712,1.48,0.71,0.71,1.79
11.722,1.97,1.10,0.29,2.28
11.732,2.20,1.49,0.07,2.66
11.742,2.28,1.83,-0.10,2.93
11.753,2.28,2.15,-0.28,3.14
11.763,2.14,2.44,-0.64,3.31
11.773,1.92,2.68,-1.24,3.52
11.783,1.71,2.58,-1.85,3.61
11.793,1.45,2.15,-2.08,3.32
11.803,1.28,1.62,-1.98,2.86
11.813,1.16,1.15,-1.80,2.43
11.823,0.96,0.81,-1.52,1.97
11.833,0.73,0.53,-1.15,1.46
11.843,0.45,0.40,-0.88,1.06
11.853,0.12,0.31,-0.69,0.77
11.863,-0.29,0.21,-0.57,0.67
11.873,-0.50,0.08,-0.50,0.71
11.883,-0.34,0.00,-0.38,0.51
11.894,-0.02,-0.06,-0.19,0.20
11.903,0.11,-0.11,-0.07,0.17
11.914,0.13,-0.09,0.14,0.21
11.924,0.15,0.07,0.39,0.42
11.934,0.16,0.27,0.39,0.51
11.944,0.02,0.42,0.37,0.56
11.954,0.08,0.43,0.23,0.49
11.964,0.31,0.39,0.12,0.51
11.974,0.43,0.35,0.08,0.56
11.984,0.30,0.14,0.03,0.33
11.994,0.33,0.02,0.04,0.33
12.004,0.44,0.16,-0.01,0.46
12.014,0.54,0.43,0.03,0.69
12.024,0.50,0.64,0.08,0.81
12.035,0.32,0.79,0.04,0.85
12.045,0.14,0.88,0.01,0.89
12.055,0.06,0.92,-0.03,0.92
12.065,0.06,0.85,-0.09,0.85
12.075,0.01,0.69,-0.15,0.70
12.085,0.01,0.50,-0.25,0.56
12.095,0.03,0.36,-0.48,0.60
12.105,0.17,0.29,-0.79,0.85
12.115,0.38,0.16,-1.14,1.21
12.125,0.72,0.00,-1.47,1.64
12.135,1.21,-0.23,-1.84,2.21
12.145,1.81,-0.73,-2.28,3.00
12.155,2.44,-1.60,-2.78,4.03
12.166,2.95,-2.57,-3.31,5.13
12.176,3.27,-3.46,-3.76,6.07
12.186,3.36,-4.31,-3.82,6.66
12.196,3.34,-5.11,-3.32,6.95
12.206,3.35,-5.76,-2.56,7.14
12.216,3.17,-6.05,-1.68,7.03
12.226,2.78,-6.05,-0.66,6.69
12.236,2.35,-6.04,0.24,6.48
12.246,1.42,-6.02,0.66,6.22
12.256,0.30,-5.90,0.52,5.93
12.266,-0.54,-5.26,0.31,5.30
12.276,-1.18,-4.29,0.15,4.45
12.286,-1.61,-3.19,0.03,3.57
12.296,-2.24,-2.14,-0.26,3.11
12.307,-2.98,-1.32,-1.41,3.55
12.316,-2.81,-0.91,-4.90,5.72
12.327,-1.05,-1.00,-9.95,10.05
12.337,0.40,-1.25,-9.50,9.59
12.347,0.34,-2.01,-5.19,5.58
12.357,0.60,-2.69,-1.88,3.34
12.367,1.33,-2.86,1.62,3.55
12.377,2.02,-2.68,5.19,6.18
12.387,1.10,-1.90,4.65,5.14
12.397,0.57,-1.22,6.57,6.71
12.407,0.39,0.01,6.25,6.26
12.417,0.05,0.80,5.18,5.24
12.427,0.20,1.40,4.06,4.30
12.437,0.45,1.81,2.74,3.32
12.447,0.93,1.97,1.02,2.41
12.458,1.52,1.81,-0.88,2.51
12.468,1.52,1.28,-2.41,3.12
12.478,0.61,0.58,-2.22,2.37
12.488,-0.03,0.30,0.31,0.43
12.498,-0.35,0.57,3.58,3.64
12.508,-0.37,0.94,5.18,5.28
12.518,0.20,0.96,4.28,4.39
12.528,0.82,0.72,2.64,2.85
12.538,0.32,0.20,1.78,1.82
12.548,-1.17,-0.06,1.59,1.98
12.558,-2.13,0.06,2.01,2.93
12.568,-2.19,0.28,2.76,3.53
12.579,-1.99,0.46,3.48,4.03
12.589,-2.01,0.72,3.86,4.41
12.599,-1.86,0.97,3.94,4.47
12.609,-1.72,1.20,3.84,4.37
12.619,-1.77,1.30,3.88,4.46
12.629,-1.92,1.30,4.18,4.78
12.639,-2.03,1.14,4.65,5.20
12.649,-1.84,1.12,5.00,5.44
12.659,-1.62,1.23,5.01,5.40
12.669,-1.34,1.54,4.92,5.33
12.679,-1.19,2.07,4.88,5.43
12.689,-1.57,2.18,4.94,5.63
12.699,-1.58,3.06,5.04,6.10
12.709,-1.68,3.92,5.24,6.75
12.719,-2.33,4.20,5.46,7.27
12.729,-2.73,4.38,5.49,7.54
12.739,-2.78,4.24,4.93,7.07
12.750,-2.14,4.54,3.90,6.36
12.760,-1.47,4.20,2.59,5.15
12.770,-0.56,3.94,1.68,4.32
12.780,0.28,3.86,0.30,3.89
12.790,2.59,3.49,-9.50,10.45
12.800,6.57,1.31,-23.40,24.34
12.810,2.62,-4.50,-8.29,9.79
12.820,-3.58,-6.26,14.66,16.34
12.830,-4.61,-8.34,11.85,15.21
12.840,-2.35,-10.89,5.26,12.32
12.850,0.64,-12.31,-6.41,13.89
12.860,1.19,-10.31,-13.72,17.20
12.870,-1.96,-4.87,-1.38,5.42
12.881,-1.67,-1.16,4.90,5.31
12.891,-0.75,0.23,2.50,2.61
12.901,0.31,-0.87,-2.39,2.56
12.911,-0.07,-3.44,-3.36,4.81
12.921,-1.58,-4.43,0.04,4.70
12.931,-2.80,-3.90,1.82,5.14
12.941,-3.40,-3.01,1.96,4.95
12.951,-3.44,-2.22,1.92,4.52
12.961,-2.93,-1.38,2.02,3.81
12.971,-2.07,-0.70,2.28,3.15
12.981,-0.99,-0.54,2.50,2.74
12.991,0.32,-0.55,2.32,2.41
13.001,1.39,-0.59,1.98,2.49
13.011,2.31,-0.39,1.54,2.80
13.021,3.06,-0.03,1.10,3.25
13.032,3.30,0.14,0.80,3.40
13.042,3.06,0.20,0.68,3.15
13.052,2.65,0.33,0.70,2.76
13.062,2.12,0.51,0.86,2.34
13.072,1.65,0.86,0.95,2.09
13.082,1.18,1.27,0.86,1.94
13.092,0.89,1.71,0.73,2.06
13.102,0.68,2.09,0.65,2.30
13.112,0.56,2.37,0.54,2.49
13.122,0.51,2.52,0.36,2.59
13.132,0.43,2.57,0.15,2.61
13.142,0.39,2.47,-0.13,2.51
13.152,0.31,2.24,-0.53,2.32
13.163,0.17,1.94,-0.97,2.18
13.173,0.10,1.56,-1.22,1.98
13.183,0.14,1.17,-1.31,1.76
13.193,0.21,0.88,-1.38,1.65
13.203,0.23,0.62,-1.43,1.58
13.213,0.03,0.50,-1.36,1.46
13.223,0.06,0.44,-1.19,1.27
13.233,0.16,0.30,-0.91,0.97
13.243,0.05,0.36,-0.75,0.84
13.253,-0.01,0.43,-0.85,0.95
13.263,-0.11,0.45,-1.04,1.13
13.273,-0.19,0.46,-1.16,1.26
13.283,-0.14,0.46,-1.21,1.30
13.293,-0.13,0.35,-1.29,1.34
13.303,-0.15,0.17,-1.47,1.49
13.314,-0.08,0.03,-1.61,1.61
13.324,0.12,-0.09,-1.69,1.69
13.334,0.33,-0.16,-1.83,1.86
13.344,0.51,-0.25,-1.96,2.04
13.354,0.73,-0.48,-2.03,2.20
13.364,0.96,-0.80,-2.00,2.36
13.374,1.25,-1.05,-2.01,2.59
13.384,1.65,-1.29,-2.06,2.94
13.394,2.02,-1.41,-2.09,3.23
13.404,2.25,-1.37,-2.14,3.40
13.414,2.35,-1.33,-2.18,3.47
13.424,2.52,-1.39,-2.13,3.57
13.434,2.59,-1.73,-2.02,3.71
13.444,2.48,-2.02,-1.96,3.75
13.455,2.17,-2.33,-1.82,3.67
13.465,2.13,-2.94,-1.63,3.98
13.475,2.42,-3.92,-1.27,4.78
13.485,2.75,-4.88,-0.75,5.65
13.495,3.05,-5.69,-0.21,6.46
13.505,3.02,-6.37,0.10,7.05
13.515,2.34,-6.84,0.24,7.24
13.525,0.91,-6.83,0.33,6.90
13.535,-0.69,-6.55,0.28,6.59
13.545,-1.99,-5.88,0.06,6.21
13.555,-3.09,-4.80,-0.30,5.72
13.565,-4.32,-3.39,-2.25,5.93
13.575,-5.50,-2.03,-8.50,10.33
13.585,-4.28,-0.96,-14.93,15.56
13.595,-1.89,-0.64,-9.62,9.82
13.606,-1.56,-1.43,-4.56,5.02
13.616,-1.27,-2.38,-1.24,2.97
13.626,-1.18,-2.96,2.22,3.89
13.636,-1.04,-2.89,4.94,5.82
13.646,-0.74,-2.41,5.87,6.39
13.656,-0.27,-1.84,6.38,6.64
13.666,0.11,-1.33,7.18,7.30
13.676,0.61,-0.72,7.84,7.90
13.686,0.47,-0.18,7.93,7.94
13.696,0.55,0.34,6.76,6.79
13.706,1.27,0.66,4.61,4.82
13.716,2.33,0.92,0.48,2.55
13.726,2.77,0.94,-5.21,5.98
13.737,1.75,0.59,-6.15,6.42
13.747,0.39,0.44,-3.32,3.37
13.757,-0.46,0.68,0.77,1.12
13.767,-0.74,1.01,4.19,4.37
13.777,-0.84,1.23,5.30,5.50
13.787,-0.97,1.13,4.19,4.45
13.797,-1.10,1.04,2.67,3.07
13.807,-1.41,1.02,1.88,2.56
13.817,-1.35,0.99,1.88,2.52
13.827,-1.26,0.91,1.89,2.45
13.837,-1.26,0.82,2.17,2.64
13.847,-1.37,0.82,2.66,3.10
13.857,-1.49,0.81,3.09,3.52
13.867,-1.62,0.83,3.29,3.76
13.877,-1.78,0.98,3.34,3.91
13.888,-1.93,1.22,3.54,4.21
13.898,-2.06,1.46,3.90,4.65
13.908,-2.10,1.68,4.37,5.13
13.918,-2.12,1.81,4.82,5.57
13.928,-2.07,2.00,5.10,5.85
13.938,-1.94,2.20,5.16,5.93
13.948,-1.78,2.27,5.01,5.78
13.958,-1.73,2.44,4.53,5.43
13.968,-1.65,2.75,4.03,5.15
13.978,-1.50,3.18,3.71,5.11
13.988,-1.28,3.67,3.56,5.27
13.998,-0.97,3.96,3.58,5.43
14.008,-0.71,4.07,3.71,5.55
14.018,-0.59,4.15,3.83,5.68
14.029,-0.52,4.09,3.87,5.65
14.039,-0.58,3.87,3.67,5.37
14.049,-0.67,3.50,3.30,4.85
14.059,-0.65,3.02,2.75,4.14
14.069,-0.04,2.43,0.10,2.43
14.079,2.74,1.26,-10.94,11.35
14.089,7.17,-1.35,-20.29,21.57
14.099,4.96,-7.25,-16.16,18.39
14.109,0.05,-9.73,-0.26,9.73
14.119,-3.15,-8.92,12.33,15.54
14.129,-3.70,-8.54,11.90,15.11
14.139,-2.99,-8.50,3.65,9.72
14.149,-3.48,-6.27,-6.82,9.90
14.160,-4.97,-1.73,-8.32,9.85
14.170,-3.70,0.81,0.37,3.81
14.180,-1.48,1.69,4.79,5.29
14.190,1.22,1.02,4.85,5.10
14.200,2.95,-1.62,1.84,3.84
14.210,2.98,-4.18,-1.30,5.30
14.220,1.61,-5.47,-0.92,5.77
14.230,0.28,-4.91,1.23,5.07
14.240,-0.15,-2.73,1.92,3.35
14.250,-0.44,-0.69,1.49,1.70
14.260,-0.50,0.65,0.87,1.20
14.270,-0.49,1.30,0.71,1.56
14.280,-0.51,1.08,0.94,1.52
14.290,-0.45,0.25,1.26,1.36
14.300,-0.60,-0.50,1.54,1.73
14.311,-0.91,-0.93,1.58,2.04
14.321,-1.18,-1.06,1.38,2.10
14.331,-1.27,-0.98,1.05,1.92
14.341,-1.14,-0.78,0.57,1.49
14.351,-0.77,-0.29,0.76,1.12
14.361,-0.11,0.32,0.46,0.57
14.371,0.43,0.61,-0.22,0.78
14.381,0.62,0.81,-0.51,1.14
14.391,0.45,0.96,-0.62,1.23
14.401,-0.06,1.09,-0.67,1.28
14.411,-0.53,1.01,-0.47,1.23
14.421,-0.82,0.63,-0.12,1.04
14.431,-0.86,0.13,0.17,0.89
14.441,-0.84,-0.26,0.29,0.92
14.452,-1.04,-0.25,0.18,1.08
14.462,-1.02,0.13,0.07,1.03
14.472,-0.85,0.40,-0.17,0.95
14.482,-0.52,0.36,-0.46,0.78
14.492,0.06,0.38,-0.51,0.64
14.502,0.67,0.51,-0.51,0.99
14.512,1.10,0.65,-0.58,1.40
14.522,1.46,0.76,-0.87,1.86
14.532,1.77,0.83,-1.16,2.28
14.542,2.09,1.04,-1.28,2.66
14.552,2.10,1.23,-1.34,2.78
14.562,1.92,1.38,-1.30,2.69
14.572,1.45,1.31,-1.20,2.30
14.582,0.91,0.97,-1.06,1.70
14.593,0.41,0.37,-0.86,1.02
14.603,0.02,0.20,-0.65,0.68
14.613,-0.29,0.44,-0.56,0.77
14.623,-0.61,0.59,-0.56,1.02
14.633,-1.10,1.10,-0.63,1.68
14.643,-1.19,1.70,-0.82,2.23
14.653,-0.65,1.58,-1.13,2.05
14.663,0.08,1.25,-1.25,1.76
14.673,0.41,0.82,-1.24,1.54
14.683,0.65,0.34,-1.24,1.44
14.693,0.81,-0.03,-1.17,1.42
14.703,1.02,-0.27,-1.04,1.48
14.713,1.01,0.14,-0.68,1.22
14.723,0.76,-1.21,-0.76,1.62
14.734,0.44,-1.75,-0.60,1.90
14.744,-0.11,-1.49,-0.47,1.56
14.754,-0.69,-1.26,-0.35,1.48
14.764,-0.96,-0.98,0.47,1.45
14.774,-1.14,-1.10,1.35,2.08
14.784,-1.30,-1.16,1.82,2.52
14.794,-1.40,-0.91,2.12,2.70
14.804,-1.43,-0.89,2.17,2.75
14.814,-1.55,-1.01,1.93,2.67
14.824,-1.76,-1.48,1.64,2.83
14.834,-1.83,-1.54,1.63,2.89
14.844,-1.90,-1.58,1.88,3.11
14.854,-1.98,-1.80,1.86,3.25
14.864,-2.13,-1.48,1.56,3.03
14.875,-2.16,-0.71,1.34,2.64
14.885,-2.01,-0.41,1.04,2.30
14.895,-1.80,-0.78,0.74,2.09
14.905,-1.49,-0.85,0.46,1.78
14.915,-0.86,-0.27,-1.57,1.81
14.925,0.22,0.25,-4.79,4.80
14.935,0.54,-0.14,-4.67,4.71
14.945,0.14,-0.49,-2.48,2.53
14.955,-0.37,-1.03,-0.76,1.33
14.965,-0.70,-1.00,0.34,1.27
14.975,-0.79,-1.39,0.70,1.75
14.985,-0.71,-1.37,0.59,1.65
14.995,-0.73,-0.97,0.41,1.28
15.005,-0.57,-0.87,0.12,1.05
15.015,-0.28,-0.49,-0.42,0.70
15.026,-0.01,-0.31,-1.22,1.26
15.036,0.12,-0.42,-1.87,1.92
15.046,0.06,-0.78,-1.68,1.85
15.056,-0.04,-1.19,-0.75,1.41
15.066,-0.11,-1.32,-0.09,1.33
15.076,-0.27,-1.43,0.31,1.49
15.086,-0.34,-1.58,0.81,1.81
15.096,-0.32,-1.46,1.10,1.86
15.106,-0.33,-1.21,1.15,1.71
15.116,-0.35,-0.95,1.21,1.57
15.126,-0.58,-0.74,1.10,1.45
15.136,-0.95,-0.83,0.49,1.35
15.146,-1.13,-0.80,-0.07,1.38
15.157,-1.55,-0.41,-0.58,1.70
15.167,-1.62,-0.04,-1.13,1.98
15.177,-1.70,0.50,-1.61,2.40
15.187,-1.60,1.17,-1.69,2.61
15.197,-1.24,1.83,-1.72,2.80
15.207,-0.76,1.73,-1.27,2.28
15.217,-0.52,0.62,-0.76,1.11
15.227,-0.03,-0.39,-0.33,0.51
15.237,0.59,-0.49,0.52,0.93
15.247,1.16,0.24,1.72,2.08
15.258,1.58,0.75,3.00,3.47
15.267,1.95,0.61,3.65,4.18
15.277,2.21,-0.79,4.06,4.69
15.287,2.52,-1.75,2.63,4.04
15.297,1.94,-1.56,-0.69,2.59
15.307,0.65,-0.84,-3.05,3.23
15.318,-0.57,0.16,-3.82,3.86
15.328,-1.50,-0.37,-3.15,3.51
15.338,-2.24,-0.81,-2.04,3.13
15.348,-2.05,-0.25,-1.53,2.57
15.358,-2.84,-2.25,-1.11,3.79
15.368,-3.70,-3.90,-1.15,5.50
15.378,-2.99,-3.35,-1.72,4.80
15.388,-1.53,-2.14,-2.05,3.33
15.398,0.15,-0.72,-2.05,2.18
15.408,1.16,0.53,-2.07,2.44
15.418,1.23,0.68,-2.52,2.89
15.428,0.69,0.36,-2.34,2.47
15.438,0.06,0.60,-1.62,1.72
15.448,-0.62,0.17,-0.89,1.10
15.459,-0.34,0.41,0.41,0.68
15.469,0.83,1.48,1.59,2.33
15.479,1.69,1.93,1.31,2.88
15.489,1.69,0.86,0.22,1.91
15.500,0.45,-0.29,-1.36,1.46
15.509,0.82,-0.54,-2.55,2.74
15.519,2.59,-0.48,-2.21,3.43
15.529,5.28,-0.36,-1.69,5.56
15.539,7.24,-0.18,-0.25,7.25
15.549,8.02,-0.05,1.48,8.15
15.559,8.33,0.40,2.86,8.82
15.569,8.23,0.77,4.46,9.39
15.579,7.44,0.72,5.75,9.43
15.590,6.14,0.37,6.48,8.93
15.600,4.67,-0.57,6.89,8.34
15.610,3.24,-1.74,6.86,7.79
15.620,2.19,-2.71,6.77,7.62
15.630,1.75,-2.22,7.16,7.70
15.640,1.77,-0.68,7.78,8.00
15.650,1.83,0.57,7.60,7.84
15.660,1.58,1.32,6.74,7.05
15.670,1.02,1.53,5.91,6.19
15.680,0.32,1.18,4.93,5.08
15.690,-0.36,0.87,3.90,4.02
15.700,-1.02,1.02,3.20,3.51
15.710,-1.77,1.20,2.83,3.55
15.720,-2.35,0.99,2.65,3.68
15.731,-2.69,0.64,2.70,3.87
15.741,-2.85,0.39,2.53,3.83
15.751,-2.80,-0.04,2.01,3.45
15.761,-2.76,-0.41,1.42,3.13
15.771,-2.87,-0.57,0.98,3.09
15.781,-3.08,-0.62,0.77,3.23
15.791,-3.38,-0.80,0.65,3.53
15.801,-3.61,-1.13,0.51,3.82
15.811,-3.77,-1.38,0.38,4.04
15.821,-3.87,-1.58,0.37,4.19
15.831,-4.03,-1.79,0.21,4.41
15.841,-4.32,-2.44,-0.24,4.97
15.851,-4.63,-3.14,-0.75,5.64
15.861,-4.86,-3.54,-1.09,6.11
15.871,-4.97,-3.78,-1.04,6.33
15.882,-4.80,-3.60,-0.89,6.07
15.892,-4.50,-3.09,-0.93,5.54
15.902,-4.26,-2.73,-1.01,5.16
15.912,-4.04,-2.46,-1.26,4.90
15.922,-3.81,-2.46,-1.68,4.84
15.932,-3.55,-2.79,-1.94,4.91
15.942,-3.09,-2.92,-2.04,4.72
15.952,-2.58,-2.77,-2.00,4.28
15.962,-2.07,-2.53,-1.86,3.76
15.972,-1.66,-2.25,-1.62,3.23
15.982,-1.31,-2.00,-1.35,2.75
15.992,-0.45,-2.07,-0.59,2.20
16.002,1.32,-2.50,0.27,2.84
16.012,3.89,-3.15,0.88,5.08
16.023,4.95,-3.86,0.55,6.30
16.033,3.49,-4.38,-0.57,5.63
16.043,1.37,-4.44,-1.65,4.93
16.053,-0.21,-4.29,-2.46,4.95
16.063,-1.13,-3.90,-3.03,5.07
16.073,-1.60,-3.25,-3.38,4.95
16.083,-3.10,-2.38,-2.48,4.63
16.093,-4.60,-1.65,-1.74,5.19
16.103,-2.04,-1.70,-2.09,3.38
16.113,-0.69,-1.76,-1.32,2.30
16.123,2.16,-2.40,-1.53,3.57
16.133,3.00,-3.38,-1.09,4.65
16.144,2.26,-3.72,-1.13,4.49
16.153,1.85,-3.13,-1.33,3.87
16.163,2.15,-2.80,-1.28,3.75
16.174,2.29,-2.64,-0.97,3.63
16.184,1.81,-2.27,-0.63,2.97
16.194,0.89,-1.60,-0.55,1.91
16.204,-0.01,-0.75,-0.39,0.85
16.214,-1.04,-0.58,0.61,1.34
16.224,-0.36,-0.79,1.57,1.79
16.234,0.48,-1.21,1.47,1.96
16.244,0.62,-1.37,0.93,1.77
16.254,0.75,-0.94,1.70,2.08
16.264,1.01,-0.78,1.89,2.28
16.274,0.74,-0.79,1.07,1.53
16.284,-0.09,-0.78,0.40,0.88
16.295,-0.34,-0.61,0.25,0.74
16.304,0.42,-0.30,0.85,0.99
16.315,0.91,0.09,0.56,1.07
16.325,0.55,-0.13,0.26,0.62
16.335,0.24,-0.38,0.09,0.45
16.345,0.75,-0.55,0.26,0.96
16.355,1.43,-0.89,0.34,1.72
16.365,1.39,-1.05,-0.20,1.75
16.375,1.08,-1.01,-0.45,1.54
16.385,0.68,-0.95,-0.23,1.19
16.395,0.46,-0.79,-0.61,1.10
16.405,0.40,-0.67,-0.68,1.04
16.415,0.19,-0.46,-0.28,0.57
16.425,0.53,-0.98,0.60,1.27
16.435,0.63,-1.09,0.47,1.34
16.445,0.54,-1.20,0.31,1.35
16.455,0.47,-1.19,0.44,1.35
16.466,0.65,-0.84,0.67,1.25
16.476,0.44,-0.36,0.35,0.66
16.486,0.25,-0.01,-0.12,0.28
16.496,0.42,0.26,-0.44,0.66
16.506,0.78,0.30,-0.29,0.88
16.516,0.41,-0.07,-0.26,0.49
16.526,0.10,-0.28,-0.16,0.34
16.536,0.10,-0.26,-0.16,0.32
16.546,0.24,-0.18,-0.20,0.36
16.556,0.30,-0.09,-0.31,0.44
16.566,0.21,-0.10,-0.37,0.43
16.576,0.27,-0.19,0.02,0.33
16.587,0.18,-0.50,0.36,0.64
16.597,0.04,-0.60,0.45,0.75
16.607,0.12,-0.45,0.53,0.71
16.617,0.21,-0.39,0.52,0.68
16.627,0.17,-0.32,0.30,0.47
16.637,0.20,-0.22,0.06,0.31
16.647,0.37,-0.13,0.00,0.39
16.657,0.41,-0.15,-0.03,0.44
16.667,0.31,-0.18,-0.01,0.36
16.677,0.23,-0.23,0.09,0.33
16.687,0.18,-0.25,0.15,0.34
16.697,0.23,-0.21,0.09,0.32
16.707,0.28,-0.12,-0.18,0.35
16.717,0.30,-0.05,-0.46,0.55
16.728,0.42,-0.13,-0.46,0.64
16.738,0.28,-0.33,-0.30,0.53
16.748,-0.02,-0.23,-0.50,0.55
16.758,-0.06,0.11,-0.59,0.60
16.768,0.47,-0.10,0.08,0.49
16.778,0.09,-0.36,-0.16,0.40
16.788,-0.33,-0.20,-0.59,0.70
16.798,-0.06,-0.02,-0.37,0.38
16.808,0.36,-0.14,0.06,0.39
16.818,0.27,-0.24,0.12,0.39
16.828,0.21,-0.30,0.07,0.37
16.838,0.43,-0.10,0.33,0.55
16.848,0.56,0.27,-0.21,0.65
16.858,0.14,0.10,0.03,0.17
16.869,0.08,0.01,0.23,0.25
16.879,0.16,0.23,0.20,0.34
16.889,0.25,0.32,0.26,0.48
16.899,0.24,0.02,0.21,0.32
16.909,0.21,-0.21,0.35,0.46
